,subj_idx,response,split_by,rt,trial,feedback,samp
0,42,1.0,0,0.8076155185699463,1,0.0,1
1,42,0.0,0,0.6646172404289246,2,0.0,1
2,42,0.0,0,1.050612449645996,3,0.0,1
3,42,0.0,0,1.7466228008270264,4,0.0,1
4,42,1.0,0,0.8866145014762878,5,1.0,1
5,42,1.0,0,0.4756169021129608,6,0.0,1
6,42,0.0,0,0.8606148362159729,7,0.0,1
7,42,0.0,0,0.6416171789169312,8,0.0,1
8,42,1.0,0,1.0836119651794434,9,0.0,1
9,42,0.0,0,1.7886247634887695,10,0.0,1
10,42,0.0,0,0.6966169476509094,11,0.0,1
11,42,1.0,0,1.4106078147888184,12,1.0,1
12,42,0.0,0,0.6066171526908875,13,0.0,1
13,42,0.0,0,1.032612681388855,14,1.0,1
14,42,1.0,0,1.0566123723983765,15,0.0,1
15,42,0.0,0,0.6166171431541443,16,0.0,1
16,42,0.0,0,0.8536149263381958,17,0.0,1
17,42,0.0,0,0.5656170845031738,18,0.0,1
18,42,0.0,0,0.8416150808334351,19,0.0,1
19,42,1.0,0,0.47361689805984497,20,0.0,1
20,42,0.0,0,0.6496171951293945,21,1.0,1
21,42,1.0,0,1.1646109819412231,22,1.0,1
22,42,1.0,0,0.8426150679588318,23,1.0,1
23,42,1.0,0,1.2766095399856567,24,1.0,1
24,42,1.0,0,0.6686172485351562,25,1.0,1
25,42,0.0,0,1.8506276607513428,26,0.0,1
26,42,0.0,0,0.9446138143539429,27,0.0,1
27,42,0.0,0,0.6136171817779541,28,1.0,1
28,42,0.0,0,0.6126171350479126,29,1.0,1
29,42,0.0,0,0.7676160335540771,30,0.0,1
30,42,1.0,0,0.7966156601905823,31,1.0,1
31,42,1.0,0,1.1676108837127686,32,1.0,1
32,42,1.0,0,2.7296321392059326,33,1.0,1
33,42,1.0,0,0.8186153769493103,34,1.0,1
34,42,1.0,0,1.8216263055801392,35,1.0,1
35,42,0.0,0,0.8276152610778809,36,0.0,1
36,42,0.0,0,0.5236169695854187,37,0.0,1
37,42,0.0,0,0.6456172466278076,38,1.0,1
38,42,1.0,0,0.9586136341094971,39,1.0,1
39,42,1.0,0,0.7416163682937622,40,1.0,1
40,42,0.0,0,0.7896157503128052,41,1.0,1
41,42,0.0,0,1.7506229877471924,42,0.0,1
42,42,1.0,0,0.586617112159729,43,1.0,1
43,42,0.0,0,1.1796107292175293,44,0.0,1
44,42,1.0,0,0.6856170892715454,45,1.0,1
45,42,0.0,0,1.120611548423767,46,0.0,1
46,42,0.0,0,0.650617241859436,47,0.0,1
47,42,1.0,0,0.6296172142028809,48,1.0,1
48,42,0.0,0,0.9886132478713989,49,0.0,1
49,42,1.0,0,0.6256171464920044,50,1.0,1
50,42,0.0,0,0.7036168575286865,51,0.0,1
51,42,0.0,0,0.632617175579071,52,0.0,1
52,42,1.0,0,0.9726134538650513,53,1.0,1
53,42,1.0,0,0.9256139993667603,54,1.0,1
54,42,0.0,0,0.5606170296669006,55,1.0,1
55,42,1.0,0,0.8136154413223267,56,0.0,1
56,42,1.0,0,0.7526162266731262,57,1.0,1
57,42,0.0,0,1.8266265392303467,58,1.0,1
58,42,0.0,0,1.9746334552764893,59,0.0,1
59,42,1.0,0,2.744631052017212,60,1.0,1
60,42,1.0,1,0.650617241859436,1,1.0,1
61,42,1.0,1,0.5116169452667236,2,1.0,1
62,42,1.0,1,0.7886157631874084,3,1.0,1
63,42,1.0,1,0.5086169242858887,4,1.0,1
64,42,0.0,1,0.9896131753921509,5,0.0,1
65,42,1.0,1,1.0596122741699219,6,1.0,1
66,42,0.0,1,0.8856145143508911,7,1.0,1
67,42,1.0,1,2.0066349506378174,8,1.0,1
68,42,1.0,1,1.5786149501800537,9,1.0,1
69,42,0.0,1,2.12164044380188,10,0.0,1
70,42,1.0,1,1.2516098022460938,11,1.0,1
71,42,0.0,1,0.5076169371604919,12,0.0,1
72,42,1.0,1,0.49461692571640015,13,1.0,1
73,42,1.0,1,1.4686098098754883,14,1.0,1
74,42,0.0,1,0.6306172013282776,15,1.0,1
75,42,0.0,1,0.5316169857978821,16,0.0,1
76,42,0.0,1,1.3186089992523193,17,0.0,1
77,42,0.0,1,0.5696170330047607,18,0.0,1
78,42,0.0,1,1.7216216325759888,19,0.0,1
79,42,0.0,1,1.7266218662261963,20,1.0,1
80,42,1.0,1,0.5746170878410339,21,0.0,1
81,42,0.0,1,0.8096154928207397,22,0.0,1
82,42,1.0,1,0.8756146430969238,23,0.0,1
83,42,0.0,1,1.779624342918396,24,1.0,1
84,42,1.0,1,0.8666147589683533,25,0.0,1
85,42,1.0,1,1.0846120119094849,26,1.0,1
86,42,1.0,1,0.8526149392127991,27,1.0,1
87,42,1.0,1,0.8166154026985168,28,0.0,1
88,42,1.0,1,0.7076168060302734,29,1.0,1
89,42,1.0,1,0.7716159820556641,30,1.0,1
90,42,1.0,1,0.5656170845031738,31,1.0,1
91,42,1.0,1,1.8606281280517578,32,1.0,1
92,42,1.0,1,0.6966169476509094,33,0.0,1
93,42,1.0,1,0.9386138916015625,34,1.0,1
94,42,1.0,1,1.1586110591888428,35,1.0,1
95,42,0.0,1,0.716616690158844,36,0.0,1
96,42,1.0,1,1.2536097764968872,37,1.0,1
97,42,1.0,1,5.053463935852051,38,1.0,1
98,42,1.0,1,0.7506162524223328,39,1.0,1
99,42,1.0,1,1.261609673500061,40,1.0,1
100,42,1.0,1,0.5136169195175171,41,0.0,1
101,42,0.0,1,1.3006092309951782,42,0.0,1
102,42,1.0,1,0.7746159434318542,43,1.0,1
103,42,1.0,1,0.7686160206794739,44,1.0,1
104,42,0.0,1,0.5726170539855957,45,1.0,1
105,42,1.0,1,0.8906144499778748,46,0.0,1
106,42,1.0,1,1.3916079998016357,47,1.0,1
107,42,1.0,1,0.5926170945167542,48,1.0,1
108,42,1.0,1,1.3646084070205688,49,1.0,1
109,42,0.0,1,0.5676170587539673,50,0.0,1
110,42,1.0,1,0.586617112159729,51,1.0,1
111,42,0.0,1,0.5586170554161072,52,0.0,1
112,42,1.0,1,0.8116154670715332,53,0.0,1
113,42,0.0,1,0.8136154413223267,54,0.0,1
114,42,1.0,1,0.9706134796142578,55,0.0,1
115,42,1.0,1,0.8266152739524841,56,1.0,1
116,42,1.0,1,0.4786168932914734,57,1.0,1
117,42,1.0,1,0.5476170182228088,58,1.0,1
118,42,0.0,1,0.6756172180175781,59,0.0,1
119,42,0.0,1,1.3066091537475586,60,0.0,1
120,42,0.0,2,2.0746381282806396,1,1.0,1
121,42,0.0,2,0.8266152739524841,2,0.0,1
122,42,1.0,2,0.6196171641349792,3,1.0,1
123,42,0.0,2,2.0006346702575684,4,1.0,1
124,42,1.0,2,1.073612093925476,5,0.0,1
125,42,1.0,2,2.0286359786987305,6,0.0,1
126,42,0.0,2,0.6776171922683716,7,1.0,1
127,42,0.0,2,0.9576135873794556,8,1.0,1
128,42,0.0,2,0.9836132526397705,9,1.0,1
129,42,0.0,2,1.5836151838302612,10,1.0,1
130,42,1.0,2,0.6496171951293945,11,1.0,1
131,42,1.0,2,0.6166171431541443,12,1.0,1
132,42,0.0,2,2.6526377201080322,13,0.0,1
133,42,0.0,2,1.028612732887268,14,0.0,1
134,42,0.0,2,0.6166171431541443,15,0.0,1
135,42,0.0,2,1.0536123514175415,16,0.0,1
136,42,1.0,2,1.6146166324615479,17,0.0,1
137,42,1.0,2,1.264609694480896,18,0.0,1
138,42,1.0,2,1.777624249458313,19,0.0,1
139,42,1.0,2,0.5876170992851257,20,0.0,1
140,42,1.0,2,1.8786289691925049,21,0.0,1
141,42,1.0,2,1.6136165857315063,22,0.0,1
142,42,0.0,2,1.8526277542114258,23,0.0,1
143,42,0.0,2,0.8496149778366089,24,0.0,1
144,42,1.0,2,0.5456169843673706,25,1.0,1
145,42,1.0,2,1.8506276607513428,26,0.0,1
146,42,0.0,2,0.8796145915985107,27,0.0,1
147,42,1.0,2,0.6636172533035278,28,1.0,1
148,42,0.0,2,0.5656170845031738,29,0.0,1
149,42,0.0,2,0.7256165742874146,30,1.0,1
150,42,1.0,2,1.2526098489761353,31,0.0,1
151,42,0.0,2,1.753623127937317,32,1.0,1
152,42,1.0,2,1.0756120681762695,33,1.0,1
153,42,1.0,2,0.7336164712905884,34,0.0,1
154,42,0.0,2,0.7186166644096375,35,0.0,1
155,42,0.0,2,0.9576135873794556,36,1.0,1
156,42,1.0,2,0.7456163167953491,37,0.0,1
157,42,0.0,2,0.6866170763969421,38,0.0,1
158,42,0.0,2,1.3266088962554932,39,1.0,1
159,42,0.0,2,1.1816107034683228,40,0.0,1
160,42,1.0,2,0.5396170020103455,41,1.0,1
161,42,0.0,2,1.401607871055603,42,0.0,1
162,42,0.0,2,1.422607660293579,43,0.0,1
163,42,1.0,2,0.9306139945983887,44,1.0,1
164,42,1.0,2,0.878614604473114,45,0.0,1
165,42,0.0,2,0.5596170425415039,46,0.0,1
166,42,1.0,2,0.8946143984794617,47,0.0,1
167,42,1.0,2,1.0596122741699219,48,0.0,1
168,42,0.0,2,0.522616982460022,49,0.0,1
169,42,0.0,2,0.7556161880493164,50,1.0,1
170,42,0.0,2,0.8856145143508911,51,0.0,1
171,42,1.0,2,0.8336151838302612,52,1.0,1
172,42,1.0,2,1.1346113681793213,53,0.0,1
173,42,1.0,2,4.058535575866699,54,1.0,1
174,42,1.0,2,1.5386130809783936,55,0.0,1
175,42,0.0,2,0.7766159176826477,56,0.0,1
176,42,1.0,2,0.9736133813858032,57,1.0,1
177,42,1.0,2,0.8186153769493103,58,1.0,1
178,42,1.0,2,0.9776133298873901,59,1.0,1
179,42,1.0,2,1.2246102094650269,60,1.0,1
180,50,0.0,0,0.9218779802322388,1,0.0,1
181,50,1.0,0,1.332872748374939,2,1.0,1
182,50,1.0,0,0.8868784308433533,3,1.0,1
183,50,0.0,0,2.4139134883880615,4,0.0,1
184,50,0.0,0,0.9488776326179504,5,0.0,1
185,50,0.0,0,2.9688830375671387,6,0.0,1
186,50,1.0,0,1.4178715944290161,7,0.0,1
187,50,0.0,0,1.0098768472671509,8,0.0,1
188,50,1.0,0,1.4708709716796875,9,1.0,1
189,50,1.0,0,0.758880078792572,10,1.0,1
190,50,1.0,0,1.8008848428726196,11,1.0,1
191,50,0.0,0,0.6458800435066223,12,0.0,1
192,50,0.0,0,0.9388777613639832,13,0.0,1
193,50,0.0,0,1.8348864316940308,14,0.0,1
194,50,0.0,0,0.701880156993866,15,0.0,1
195,50,0.0,0,1.4148716926574707,16,0.0,1
196,50,1.0,0,0.7058801651000977,17,0.0,1
197,50,1.0,0,0.9088781476020813,18,1.0,1
198,50,0.0,0,1.8188856840133667,19,0.0,1
199,50,1.0,0,0.8828784823417664,20,1.0,1
200,50,0.0,0,1.100875735282898,21,0.0,1
201,50,0.0,0,0.5898799300193787,22,0.0,1
202,50,1.0,0,0.8158793449401855,23,1.0,1
203,50,1.0,0,1.0958757400512695,24,1.0,1
204,50,1.0,0,1.000877022743225,25,1.0,1
205,50,1.0,0,0.652880072593689,26,0.0,1
206,50,0.0,0,1.3868720531463623,27,0.0,1
207,50,1.0,0,1.1698747873306274,28,1.0,1
208,50,1.0,0,0.8368790745735168,29,1.0,1
209,50,1.0,0,0.6718800663948059,30,1.0,1
210,50,0.0,0,1.0948758125305176,31,1.0,1
211,50,1.0,0,1.0448764562606812,32,1.0,1
212,50,1.0,0,1.2008744478225708,33,1.0,1
213,50,1.0,0,0.5688798427581787,34,1.0,1
214,50,0.0,0,0.839879035949707,35,0.0,1
215,50,0.0,0,0.9718773365020752,36,1.0,1
216,50,1.0,0,1.5418727397918701,37,0.0,1
217,50,1.0,0,1.1518750190734863,38,1.0,1
218,50,1.0,0,0.747880220413208,39,1.0,1
219,50,0.0,0,1.023876667022705,40,0.0,1
220,50,1.0,0,0.7158801555633545,41,1.0,1
221,50,1.0,0,0.6818801164627075,42,1.0,1
222,50,1.0,0,0.6938801407814026,43,1.0,1
223,50,1.0,0,1.1138755083084106,44,1.0,1
224,50,1.0,0,0.8048794865608215,45,1.0,1
225,50,0.0,0,1.071876049041748,46,0.0,1
226,50,0.0,0,0.6008799076080322,47,0.0,1
227,50,1.0,0,0.5558798313140869,48,1.0,1
228,50,1.0,0,1.9358911514282227,49,1.0,1
229,50,0.0,0,1.916890263557434,50,0.0,1
230,50,1.0,0,0.6968801021575928,51,1.0,1
231,50,0.0,0,0.8078794479370117,52,0.0,1
232,50,1.0,0,0.7538801431655884,53,1.0,1
233,50,1.0,0,0.88787841796875,54,1.0,1
234,50,0.0,0,1.4308714866638184,55,0.0,1
235,50,0.0,0,0.6788800954818726,56,0.0,1
236,50,1.0,0,0.6138799786567688,57,1.0,1
237,50,0.0,0,0.6138799786567688,58,0.0,1
238,50,0.0,0,0.7438802123069763,59,0.0,1
239,50,0.0,0,0.8938783407211304,60,1.0,1
240,50,1.0,0,0.7158801555633545,61,1.0,1
241,50,0.0,0,0.6148799657821655,62,1.0,1
242,50,0.0,0,1.1088756322860718,63,0.0,1
243,50,0.0,0,0.784879744052887,64,0.0,1
244,50,0.0,0,0.9068781733512878,65,0.0,1
245,50,1.0,0,1.2128742933273315,66,1.0,1
246,50,0.0,0,0.7098801732063293,67,0.0,1
247,50,0.0,0,0.7368801832199097,68,0.0,1
248,50,0.0,0,0.6508800387382507,69,0.0,1
249,50,1.0,0,0.924877941608429,70,1.0,1
250,50,1.0,0,1.6978800296783447,71,1.0,1
251,50,1.0,0,0.9148780703544617,72,1.0,1
252,50,0.0,0,0.6108799576759338,73,0.0,1
253,50,1.0,0,1.2458738088607788,74,1.0,1
254,50,1.0,0,1.8178856372833252,75,1.0,1
255,50,1.0,0,0.8258792161941528,76,1.0,1
256,50,1.0,0,0.7378802299499512,77,1.0,1
257,50,1.0,0,0.6148799657821655,78,1.0,1
258,50,1.0,0,0.7878797054290771,79,1.0,1
259,50,0.0,0,2.1649017333984375,80,0.0,1
260,50,1.0,0,0.7498801946640015,81,1.0,1
261,50,1.0,0,0.8138793706893921,82,1.0,1
262,50,1.0,0,0.7828797698020935,83,1.0,1
263,50,1.0,0,1.0988757610321045,84,1.0,1
264,50,1.0,0,1.1738747358322144,85,1.0,1
265,50,0.0,0,0.6098799705505371,86,0.0,1
266,50,1.0,0,0.8858784437179565,87,1.0,1
267,50,0.0,0,0.9878771305084229,88,0.0,1
268,50,1.0,0,0.5928798913955688,89,1.0,1
269,50,1.0,0,0.6568800210952759,90,1.0,1
270,50,1.0,0,1.2678735256195068,91,1.0,1
271,50,1.0,0,0.6148799657821655,92,1.0,1
272,50,1.0,0,0.7258802056312561,93,1.0,1
273,50,1.0,0,0.8208792805671692,94,1.0,1
274,50,0.0,0,0.7178801894187927,95,0.0,1
275,50,1.0,0,0.8158793449401855,96,1.0,1
276,50,1.0,0,0.7808797955513,97,1.0,1
277,50,1.0,0,0.7788798213005066,98,1.0,1
278,50,1.0,0,1.0858758687973022,99,1.0,1
279,50,0.0,0,0.9848771691322327,100,0.0,1
280,50,1.0,0,1.6748789548873901,101,0.0,1
281,50,1.0,0,1.4058717489242554,102,0.0,1
282,50,1.0,0,1.048876404762268,103,1.0,1
283,50,0.0,0,0.773879885673523,104,0.0,1
284,50,0.0,0,0.7548801302909851,105,0.0,1
285,50,1.0,0,0.7708799242973328,106,0.0,1
286,50,1.0,0,0.8448789715766907,107,1.0,1
287,50,0.0,0,0.6218799948692322,108,0.0,1
288,50,0.0,0,0.924877941608429,109,1.0,1
289,50,1.0,0,0.7178801894187927,110,1.0,1
290,50,0.0,0,1.6138761043548584,111,0.0,1
291,50,0.0,0,2.065897226333618,112,0.0,1
292,50,1.0,0,0.8058794736862183,113,1.0,1
293,50,0.0,0,0.7238801717758179,114,0.0,1
294,50,1.0,0,1.2178741693496704,115,1.0,1
295,50,1.0,0,1.4198715686798096,116,1.0,1
296,50,1.0,0,0.7548801302909851,117,1.0,1
297,50,0.0,0,0.8578788042068481,118,0.0,1
298,50,1.0,0,0.6008799076080322,119,1.0,1
299,50,0.0,0,0.9428777098655701,120,0.0,1
300,50,0.0,1,0.9768772721290588,1,0.0,1
301,50,0.0,1,1.3788721561431885,2,1.0,1
302,50,1.0,1,1.5938751697540283,3,1.0,1
303,50,1.0,1,0.9128780961036682,4,1.0,1
304,50,1.0,1,0.6228799819946289,5,1.0,1
305,50,0.0,1,1.0778759717941284,6,0.0,1
306,50,1.0,1,0.7148801684379578,7,0.0,1
307,50,1.0,1,1.4368714094161987,8,0.0,1
308,50,1.0,1,0.7268801927566528,9,1.0,1
309,50,1.0,1,0.7688799500465393,10,0.0,1
310,50,1.0,1,1.916890263557434,11,1.0,1
311,50,1.0,1,0.9658774137496948,12,1.0,1
312,50,0.0,1,1.1848746538162231,13,0.0,1
313,50,0.0,1,0.8038794994354248,14,0.0,1
314,50,1.0,1,0.5748798847198486,15,1.0,1
315,50,0.0,1,0.6858801245689392,16,0.0,1
316,50,1.0,1,0.7198801636695862,17,1.0,1
317,50,0.0,1,1.070876121520996,18,0.0,1
318,50,0.0,1,1.9248906373977661,19,0.0,1
319,50,1.0,1,1.0438764095306396,20,1.0,1
320,50,0.0,1,0.7638800144195557,21,0.0,1
321,50,0.0,1,1.311872959136963,22,1.0,1
322,50,0.0,1,0.649880051612854,23,1.0,1
323,50,0.0,1,1.8878889083862305,24,0.0,1
324,50,1.0,1,1.4758708477020264,25,1.0,1
325,50,1.0,1,0.9938770532608032,26,1.0,1
326,50,1.0,1,0.7078801393508911,27,0.0,1
327,50,1.0,1,1.1968744993209839,28,1.0,1
328,50,0.0,1,0.7988795638084412,29,1.0,1
329,50,0.0,1,1.0438764095306396,30,0.0,1
330,50,1.0,1,0.7878797054290771,31,1.0,1
331,50,0.0,1,0.5458799004554749,32,0.0,1
332,50,1.0,1,0.8158793449401855,33,1.0,1
333,50,0.0,1,0.6068799495697021,34,1.0,1
334,50,1.0,1,1.1658748388290405,35,1.0,1
335,50,0.0,1,0.968877375125885,36,1.0,1
336,50,0.0,1,0.7118801474571228,37,0.0,1
337,50,0.0,1,1.2928732633590698,38,0.0,1
338,50,0.0,1,1.6088758707046509,39,0.0,1
339,50,0.0,1,0.6068799495697021,40,1.0,1
340,50,1.0,1,1.0418764352798462,41,1.0,1
341,50,1.0,1,1.005876898765564,42,1.0,1
342,50,0.0,1,1.0258766412734985,43,0.0,1
343,50,1.0,1,1.2698734998703003,44,0.0,1
344,50,0.0,1,1.52187180519104,45,1.0,1
345,50,1.0,1,0.579879879951477,46,0.0,1
346,50,0.0,1,0.9768772721290588,47,0.0,1
347,50,1.0,1,1.9388912916183472,48,1.0,1
348,50,1.0,1,1.048876404762268,49,1.0,1
349,50,1.0,1,0.6008799076080322,50,0.0,1
350,50,1.0,1,0.9288778901100159,51,0.0,1
351,50,0.0,1,0.6458800435066223,52,0.0,1
352,50,1.0,1,1.7448822259902954,53,1.0,1
353,50,1.0,1,1.6678786277770996,54,1.0,1
354,50,0.0,1,0.6158799529075623,55,0.0,1
355,50,1.0,1,0.5698798894882202,56,1.0,1
356,50,0.0,1,0.5588798522949219,57,0.0,1
357,50,1.0,1,0.619879961013794,58,0.0,1
358,50,0.0,1,1.0258766412734985,59,0.0,1
359,50,0.0,1,0.7538801431655884,60,0.0,1
360,50,0.0,1,0.7228801846504211,61,0.0,1
361,50,1.0,1,0.9348778128623962,62,1.0,1
362,50,1.0,1,0.8468789458274841,63,1.0,1
363,50,1.0,1,1.8658878803253174,64,0.0,1
364,50,1.0,1,1.3198728561401367,65,0.0,1
365,50,1.0,1,0.7038801312446594,66,0.0,1
366,50,1.0,1,0.8708786368370056,67,1.0,1
367,50,1.0,1,1.1798746585845947,68,0.0,1
368,50,1.0,1,0.7608800530433655,69,0.0,1
369,50,0.0,1,0.7708799242973328,70,0.0,1
370,50,1.0,1,0.8558788299560547,71,1.0,1
371,50,1.0,1,1.2048743963241577,72,0.0,1
372,50,1.0,1,0.8778785467147827,73,0.0,1
373,50,1.0,1,0.9878771305084229,74,0.0,1
374,50,0.0,1,1.2088743448257446,75,0.0,1
375,50,0.0,1,1.2778733968734741,76,0.0,1
376,50,1.0,1,0.6978801488876343,77,1.0,1
377,50,1.0,1,1.6908797025680542,78,0.0,1
378,50,0.0,1,1.0678761005401611,79,0.0,1
379,50,1.0,1,0.7438802123069763,80,1.0,1
380,50,0.0,1,0.9308778643608093,81,1.0,1
381,50,0.0,1,0.8568788170814514,82,0.0,1
382,50,0.0,1,0.5658798813819885,83,1.0,1
383,50,1.0,1,0.8328791260719299,84,0.0,1
384,50,0.0,1,1.2758734226226807,85,0.0,1
385,50,1.0,1,1.8898890018463135,86,1.0,1
386,50,1.0,1,1.6438775062561035,87,0.0,1
387,50,0.0,1,0.773879885673523,88,1.0,1
388,50,1.0,1,0.7248802185058594,89,1.0,1
389,50,1.0,1,0.924877941608429,90,1.0,1
390,50,1.0,1,0.5808799266815186,91,1.0,1
391,50,0.0,1,1.3678722381591797,92,0.0,1
392,50,0.0,1,1.259873628616333,93,0.0,1
393,50,1.0,1,1.0288766622543335,94,0.0,1
394,50,0.0,1,0.8468789458274841,95,0.0,1
395,50,0.0,1,0.8318791389465332,96,0.0,1
396,50,0.0,1,0.9648774266242981,97,0.0,1
397,50,1.0,1,0.6398800015449524,98,1.0,1
398,50,1.0,1,1.0468764305114746,99,0.0,1
399,50,1.0,1,0.6368800401687622,100,1.0,1
400,50,0.0,1,1.0508763790130615,101,0.0,1
401,50,1.0,1,0.8018795251846313,102,1.0,1
402,50,0.0,1,0.817879319190979,103,0.0,1
403,50,1.0,1,0.9868771433830261,104,1.0,1
404,50,1.0,1,0.6678800582885742,105,1.0,1
405,50,1.0,1,1.0248767137527466,106,1.0,1
406,50,0.0,1,1.1878745555877686,107,1.0,1
407,50,0.0,1,0.5968799591064453,108,0.0,1
408,50,0.0,1,0.9008782505989075,109,0.0,1
409,50,0.0,1,1.8278861045837402,110,0.0,1
410,50,1.0,1,0.6098799705505371,111,0.0,1
411,50,1.0,1,2.291907787322998,112,1.0,1
412,50,1.0,1,0.9028782248497009,113,1.0,1
413,50,1.0,1,1.3668723106384277,114,1.0,1
414,50,0.0,1,0.6428800225257874,115,0.0,1
415,50,1.0,1,1.0328766107559204,116,1.0,1
416,50,0.0,1,0.7358801960945129,117,1.0,1
417,50,1.0,1,0.7338802218437195,118,0.0,1
418,50,0.0,1,1.332872748374939,119,1.0,1
419,50,0.0,1,0.7708799242973328,120,0.0,1
420,50,0.0,2,0.6728800535202026,1,1.0,1
421,50,1.0,2,0.7208801507949829,2,1.0,1
422,50,0.0,2,0.7428802251815796,3,1.0,1
423,50,0.0,2,0.6718800663948059,4,0.0,1
424,50,1.0,2,0.9928770661354065,5,1.0,1
425,50,0.0,2,0.6038799285888672,6,0.0,1
426,50,1.0,2,0.968877375125885,7,1.0,1
427,50,1.0,2,0.7328802347183228,8,1.0,1
428,50,0.0,2,0.680880069732666,9,1.0,1
429,50,0.0,2,0.9748772978782654,10,0.0,1
430,50,0.0,2,0.9228779673576355,11,0.0,1
431,50,0.0,2,1.2078742980957031,12,1.0,1
432,50,0.0,2,1.144875168800354,13,0.0,1
433,50,0.0,2,1.0138767957687378,14,0.0,1
434,50,0.0,2,0.7668799757957458,15,0.0,1
435,50,0.0,2,0.631879985332489,16,0.0,1
436,50,1.0,2,0.701880156993866,17,1.0,1
437,50,0.0,2,0.924877941608429,18,1.0,1
438,50,0.0,2,1.0868759155273438,19,0.0,1
439,50,1.0,2,1.1808747053146362,20,1.0,1
440,50,0.0,2,1.2328740358352661,21,0.0,1
441,50,0.0,2,1.3898719549179077,22,1.0,1
442,50,1.0,2,0.5648798942565918,23,1.0,1
443,50,1.0,2,0.8028795123100281,24,1.0,1
444,50,1.0,2,0.8938783407211304,25,1.0,1
445,50,1.0,2,0.7118801474571228,26,0.0,1
446,50,0.0,2,0.8978782892227173,27,0.0,1
447,50,1.0,2,1.6278767585754395,28,0.0,1
448,50,1.0,2,0.7828797698020935,29,0.0,1
449,50,0.0,2,0.6208800077438354,30,0.0,1
450,50,1.0,2,1.008876919746399,31,0.0,1
451,50,1.0,2,0.7348802089691162,32,1.0,1
452,50,1.0,2,1.2248741388320923,33,0.0,1
453,50,0.0,2,0.631879985332489,34,0.0,1
454,50,1.0,2,1.0288766622543335,35,0.0,1
455,50,1.0,2,0.6358799934387207,36,1.0,1
456,50,1.0,2,1.145875096321106,37,1.0,1
457,50,0.0,2,0.9488776326179504,38,0.0,1
458,50,0.0,2,0.7548801302909851,39,0.0,1
459,50,1.0,2,0.7128801345825195,40,1.0,1
460,50,1.0,2,0.9548775553703308,41,1.0,1
461,50,1.0,2,1.071876049041748,42,1.0,1
462,50,0.0,2,1.3788721561431885,43,0.0,1
463,50,0.0,2,0.6238799691200256,44,1.0,1
464,50,1.0,2,1.0908758640289307,45,0.0,1
465,50,1.0,2,0.6278799772262573,46,0.0,1
466,50,0.0,2,0.8368790745735168,47,1.0,1
467,50,1.0,2,0.9068781733512878,48,1.0,1
468,50,1.0,2,1.2038743495941162,49,0.0,1
469,50,0.0,2,0.8168793320655823,50,0.0,1
470,50,1.0,2,1.1058756113052368,51,1.0,1
471,50,1.0,2,0.6188799738883972,52,1.0,1
472,50,0.0,2,1.1468751430511475,53,1.0,1
473,50,0.0,2,0.747880220413208,54,0.0,1
474,50,1.0,2,1.6558780670166016,55,0.0,1
475,50,1.0,2,0.8238792419433594,56,0.0,1
476,50,0.0,2,0.7558801174163818,57,1.0,1
477,50,0.0,2,0.6008799076080322,58,1.0,1
478,50,1.0,2,0.8608787655830383,59,1.0,1
479,50,0.0,2,1.163874864578247,60,1.0,1
480,50,1.0,2,1.001876950263977,61,1.0,1
481,50,1.0,2,1.0098768472671509,62,0.0,1
482,50,1.0,2,0.8648787140846252,63,0.0,1
483,50,1.0,2,1.4858707189559937,64,1.0,1
484,50,1.0,2,0.6418800354003906,65,1.0,1
485,50,1.0,2,0.8208792805671692,66,1.0,1
486,50,1.0,2,1.4128717184066772,67,0.0,1
487,50,0.0,2,0.9268779158592224,68,0.0,1
488,50,0.0,2,1.24087393283844,69,0.0,1
489,50,1.0,2,1.6048756837844849,70,1.0,1
490,50,0.0,2,0.6328799724578857,71,1.0,1
491,50,0.0,2,1.2468738555908203,72,0.0,1
492,50,1.0,2,1.2518737316131592,73,1.0,1
493,50,0.0,2,0.8528788685798645,74,0.0,1
494,50,0.0,2,1.1498750448226929,75,0.0,1
495,50,0.0,2,1.872888207435608,76,0.0,1
496,50,1.0,2,1.3018730878829956,77,0.0,1
497,50,0.0,2,1.5978753566741943,78,0.0,1
498,50,0.0,2,1.0138767957687378,79,1.0,1
499,50,0.0,2,0.8558788299560547,80,1.0,1
500,50,1.0,2,1.4158716201782227,81,1.0,1
501,50,0.0,2,0.8098794221878052,82,0.0,1
502,50,1.0,2,0.839879035949707,83,0.0,1
503,50,0.0,2,0.8518788814544678,84,0.0,1
504,50,1.0,2,1.332872748374939,85,1.0,1
505,50,1.0,2,1.4268715381622314,86,1.0,1
506,50,0.0,2,0.9488776326179504,87,1.0,1
507,50,0.0,2,1.2268741130828857,88,1.0,1
508,50,1.0,2,0.6998801231384277,89,1.0,1
509,50,0.0,2,1.1318752765655518,90,1.0,1
510,50,0.0,2,0.6248799562454224,91,1.0,1
511,50,1.0,2,1.8938891887664795,92,0.0,1
512,50,1.0,2,1.535872459411621,93,1.0,1
513,50,1.0,2,0.6658800840377808,94,1.0,1
514,50,1.0,2,1.5718741416931152,95,0.0,1
515,50,0.0,2,0.7978795766830444,96,0.0,1
516,50,1.0,2,0.5668798685073853,97,1.0,1
517,50,1.0,2,0.7548801302909851,98,1.0,1
518,50,1.0,2,0.6888800859451294,99,0.0,1
519,50,0.0,2,0.7378802299499512,100,1.0,1
520,50,0.0,2,0.8098794221878052,101,0.0,1
521,50,0.0,2,0.968877375125885,102,0.0,1
522,50,1.0,2,0.9058781862258911,103,1.0,1
523,50,0.0,2,0.9888771176338196,104,1.0,1
524,50,0.0,2,0.8808785080909729,105,0.0,1
525,50,0.0,2,0.7378802299499512,106,0.0,1
526,50,1.0,2,0.6428800225257874,107,1.0,1
527,50,1.0,2,0.6538800597190857,108,1.0,1
528,50,0.0,2,0.7378802299499512,109,1.0,1
529,50,1.0,2,0.7358801960945129,110,1.0,1
530,50,1.0,2,0.9698773622512817,111,0.0,1
531,50,0.0,2,0.968877375125885,112,0.0,1
532,50,0.0,2,0.6308799982070923,113,0.0,1
533,50,1.0,2,1.7208811044692993,114,1.0,1
534,50,0.0,2,0.9828771948814392,115,0.0,1
535,50,1.0,2,0.8268792033195496,116,1.0,1
536,50,1.0,2,0.7828797698020935,117,0.0,1
537,50,1.0,2,1.2538737058639526,118,1.0,1
538,50,1.0,2,0.8058794736862183,119,1.0,1
539,56,0.0,0,0.9727685451507568,1,0.0,1
540,56,1.0,0,0.41077572107315063,2,1.0,1
541,56,1.0,0,1.4597840309143066,3,0.0,1
542,56,0.0,0,0.23377636075019836,4,0.0,1
543,56,1.0,0,0.5997733473777771,5,1.0,1
544,56,1.0,0,1.309777021408081,6,1.0,1
545,56,0.0,0,2.0128097534179688,7,0.0,1
546,56,0.0,0,0.4207755923271179,8,0.0,1
547,56,0.0,0,2.07381272315979,9,1.0,1
548,56,1.0,0,0.4267755150794983,10,1.0,1
549,56,0.0,0,0.6447727680206299,11,0.0,1
550,56,1.0,0,0.5777735710144043,12,1.0,1
551,56,0.0,0,0.1547762155532837,13,0.0,1
552,56,1.0,0,1.0027681589126587,14,1.0,1
553,56,1.0,0,2.326796770095825,15,1.0,1
554,56,0.0,0,0.5257742404937744,16,0.0,1
555,56,0.0,0,0.5077744722366333,17,1.0,1
556,56,1.0,0,0.21477632224559784,18,1.0,1
557,56,1.0,0,0.3647763133049011,19,1.0,1
558,56,0.0,0,0.3607763648033142,20,0.0,1
559,56,0.0,0,0.4027758240699768,21,0.0,1
560,56,0.0,0,0.7647712230682373,22,0.0,1
561,56,1.0,0,1.1397690773010254,23,1.0,1
562,56,0.0,0,3.2377307415008545,24,0.0,1
563,56,1.0,0,0.34477657079696655,25,1.0,1
564,56,0.0,0,0.3057765066623688,26,0.0,1
565,56,0.0,0,0.6637725234031677,27,0.0,1
566,56,1.0,0,0.48877471685409546,28,1.0,1
567,56,1.0,0,1.8398017883300781,29,0.0,1
568,56,0.0,0,0.5017745494842529,30,0.0,1
569,56,1.0,0,0.5657737255096436,31,1.0,1
570,56,1.0,0,0.6697724461555481,32,1.0,1
571,56,1.0,0,0.35177648067474365,33,1.0,1
572,56,1.0,0,0.26877641677856445,34,1.0,1
573,56,1.0,0,0.8747698068618774,35,0.0,1
574,56,1.0,0,0.29977649450302124,36,1.0,1
575,56,1.0,0,0.2087763100862503,37,1.0,1
576,56,1.0,0,0.7517713904380798,38,1.0,1
577,56,1.0,0,0.6447727680206299,39,1.0,1
578,56,1.0,0,0.3807761073112488,40,1.0,1
579,56,0.0,0,0.3387765884399414,41,0.0,1
580,56,0.0,0,0.3537764549255371,42,0.0,1
581,56,1.0,0,1.9378063678741455,43,1.0,1
582,56,1.0,0,1.3957810401916504,44,1.0,1
583,56,1.0,0,0.41477566957473755,45,1.0,1
584,56,0.0,0,1.008768081665039,46,1.0,1
585,56,1.0,0,0.8047707080841064,47,1.0,1
586,56,1.0,0,0.357776403427124,48,1.0,1
587,56,0.0,0,0.6017733216285706,49,0.0,1
588,56,1.0,0,0.5847734808921814,50,1.0,1
589,56,1.0,0,0.636772871017456,51,1.0,1
590,56,1.0,0,0.6947721242904663,52,1.0,1
591,56,0.0,0,0.17477624118328094,53,0.0,1
592,56,1.0,0,1.8758034706115723,54,1.0,1
593,56,0.0,0,0.1597762107849121,55,0.0,1
594,56,0.0,0,0.5717736482620239,56,0.0,1
595,56,0.0,0,1.420782208442688,57,0.0,1
596,56,1.0,0,0.45677512884140015,58,0.0,1
597,56,1.0,0,0.578773558139801,59,1.0,1
598,56,1.0,0,0.6357728838920593,60,1.0,1
599,56,1.0,0,0.7057719826698303,61,1.0,1
600,56,1.0,0,0.8987694978713989,62,1.0,1
601,56,1.0,0,1.4887853860855103,63,1.0,1
602,56,1.0,0,0.3597763776779175,64,1.0,1
603,56,1.0,0,0.8817697167396545,65,1.0,1
604,56,1.0,0,0.38277608156204224,66,1.0,1
605,56,1.0,0,2.7677648067474365,67,1.0,1
606,56,1.0,0,0.7177718281745911,68,0.0,1
607,56,1.0,0,0.49177467823028564,69,1.0,1
608,56,0.0,0,0.4407753348350525,70,0.0,1
609,56,0.0,0,0.6467727422714233,71,0.0,1
610,56,1.0,0,1.2507742643356323,72,1.0,1
611,56,0.0,0,0.199776291847229,73,0.0,1
612,56,1.0,0,0.9187692403793335,74,0.0,1
613,56,0.0,0,0.475774884223938,75,0.0,1
614,56,1.0,0,0.31777653098106384,76,1.0,1
615,56,1.0,0,0.9627686738967896,77,1.0,1
616,56,0.0,0,0.48077481985092163,78,0.0,1
617,56,0.0,0,0.6357728838920593,79,0.0,1
618,56,1.0,0,0.5247742533683777,80,1.0,1
619,56,0.0,0,0.3207765221595764,81,1.0,1
620,56,0.0,0,0.9857683777809143,82,0.0,1
621,56,1.0,0,1.918805480003357,83,1.0,1
622,56,1.0,0,0.6337729096412659,84,1.0,1
623,56,1.0,0,0.6497727036476135,85,1.0,1
624,56,1.0,0,0.776771068572998,86,1.0,1
625,56,1.0,0,2.032810688018799,87,1.0,1
626,56,0.0,0,0.8577700257301331,88,0.0,1
627,56,1.0,0,0.3507764935493469,89,1.0,1
628,56,1.0,0,0.3297765552997589,90,1.0,1
629,56,1.0,0,0.30077648162841797,91,0.0,1
630,56,0.0,1,0.18477626144886017,1,0.0,1
631,56,1.0,1,0.3787761330604553,2,0.0,1
632,56,1.0,1,0.5097744464874268,3,1.0,1
633,56,0.0,1,0.2217763364315033,4,0.0,1
634,56,0.0,1,1.4677844047546387,5,0.0,1
635,56,0.0,1,0.3817760944366455,6,1.0,1
636,56,0.0,1,0.523774266242981,7,0.0,1
637,56,1.0,1,0.36177635192871094,8,1.0,1
638,56,1.0,1,0.5377740859985352,9,1.0,1
639,56,0.0,1,2.248802423477173,10,0.0,1
640,56,1.0,1,0.40477579832077026,11,0.0,1
641,56,0.0,1,0.4907746911048889,12,0.0,1
642,56,0.0,1,0.9817684292793274,13,1.0,1
643,56,0.0,1,0.5867734551429749,14,0.0,1
644,56,0.0,1,0.42877548933029175,15,0.0,1
645,56,0.0,1,0.9717685580253601,16,0.0,1
646,56,0.0,1,0.6477727293968201,17,0.0,1
647,56,1.0,1,0.2397763729095459,18,1.0,1
648,56,1.0,1,0.7357715964317322,19,0.0,1
649,56,1.0,1,0.7857709527015686,20,0.0,1
650,56,0.0,1,0.69977205991745,21,0.0,1
651,56,1.0,1,0.24777638912200928,22,1.0,1
652,56,0.0,1,0.2747764587402344,23,1.0,1
653,56,0.0,1,1.0997672080993652,24,0.0,1
654,56,0.0,1,0.7607712745666504,25,1.0,1
655,56,1.0,1,0.23177635669708252,26,1.0,1
656,56,1.0,1,0.4517751932144165,27,1.0,1
657,56,1.0,1,0.20477630198001862,28,1.0,1
658,56,0.0,1,0.4717749357223511,29,0.0,1
659,56,1.0,1,0.47077494859695435,30,0.0,1
660,56,0.0,1,0.39677590131759644,31,0.0,1
661,56,0.0,1,0.44577527046203613,32,0.0,1
662,56,0.0,1,0.2447763830423355,33,0.0,1
663,56,0.0,1,1.3397784233093262,34,0.0,1
664,56,0.0,1,0.4337754249572754,35,0.0,1
665,56,1.0,1,0.3877760171890259,36,1.0,1
666,56,1.0,1,0.5047745108604431,37,1.0,1
667,56,0.0,1,0.6067732572555542,38,0.0,1
668,56,1.0,1,0.9827684164047241,39,0.0,1
669,56,1.0,1,0.24577638506889343,40,1.0,1
670,56,1.0,1,0.31277650594711304,41,1.0,1
671,56,0.0,1,1.3067768812179565,42,0.0,1
672,56,0.0,1,0.7747710943222046,43,1.0,1
673,56,1.0,1,0.4697749614715576,44,1.0,1
674,56,0.0,1,0.6557726263999939,45,1.0,1
675,56,1.0,1,0.31277650594711304,46,1.0,1
676,56,1.0,1,0.28277647495269775,47,1.0,1
677,56,0.0,1,0.5177743434906006,48,0.0,1
678,56,1.0,1,0.986768364906311,49,0.0,1
679,56,1.0,1,0.5297741889953613,50,0.0,1
680,56,1.0,1,0.9157692790031433,51,0.0,1
681,56,0.0,1,1.0067681074142456,52,0.0,1
682,56,1.0,1,0.36177635192871094,53,1.0,1
683,56,0.0,1,0.7647712230682373,54,0.0,1
684,56,1.0,1,0.5867734551429749,55,0.0,1
685,56,0.0,1,1.2687751054763794,56,0.0,1
686,56,0.0,1,0.4307754635810852,57,0.0,1
687,56,0.0,1,0.8297703862190247,58,1.0,1
688,56,1.0,1,0.614773154258728,59,0.0,1
689,56,0.0,1,0.9087693691253662,60,0.0,1
690,56,0.0,1,0.9357690215110779,61,0.0,1
691,56,0.0,1,1.3537790775299072,62,0.0,1
692,56,1.0,1,0.3257765471935272,63,1.0,1
693,56,1.0,1,0.4507752060890198,64,1.0,1
694,56,1.0,1,0.640772819519043,65,1.0,1
695,56,1.0,1,0.3567764163017273,66,1.0,1
696,56,0.0,1,0.41477566957473755,67,1.0,1
697,56,1.0,1,1.1977717876434326,68,1.0,1
698,56,1.0,1,0.3167765140533447,69,0.0,1
699,56,1.0,1,0.2927764654159546,70,1.0,1
700,56,1.0,1,0.3067765235900879,71,1.0,1
701,56,0.0,1,0.2617764174938202,72,0.0,1
702,56,1.0,1,0.5027745366096497,73,1.0,1
703,56,1.0,1,1.2417738437652588,74,1.0,1
704,56,0.0,1,0.45677512884140015,75,0.0,1
705,56,1.0,1,0.6077732443809509,76,1.0,1
706,56,1.0,1,1.1027673482894897,77,1.0,1
707,56,1.0,1,0.5577738285064697,78,1.0,1
708,56,0.0,1,1.6287919282913208,79,0.0,1
709,56,0.0,1,0.32177653908729553,80,1.0,1
710,56,1.0,1,0.341776579618454,81,0.0,1
711,56,1.0,1,1.5967904329299927,82,0.0,1
712,56,1.0,1,0.7987707853317261,83,1.0,1
713,56,0.0,1,1.0597673654556274,84,1.0,1
714,56,1.0,1,2.3787930011749268,85,1.0,1
715,56,1.0,1,0.486774742603302,86,1.0,1
716,56,1.0,1,0.86176997423172,87,1.0,1
717,56,0.0,1,0.732771635055542,88,0.0,1
718,56,0.0,1,0.2487763911485672,89,0.0,1
719,56,1.0,1,0.3877760171890259,90,0.0,1
720,56,1.0,1,0.673772394657135,91,1.0,1
721,56,1.0,2,0.27877646684646606,1,1.0,1
722,56,0.0,2,1.1517696380615234,2,0.0,1
723,56,1.0,2,0.47777485847473145,3,0.0,1
724,56,0.0,2,0.6877722144126892,4,0.0,1
725,56,1.0,2,2.6417739391326904,5,0.0,1
726,56,0.0,2,0.7307716608047485,6,0.0,1
727,56,1.0,2,0.2537764012813568,7,1.0,1
728,56,0.0,2,1.150769591331482,8,0.0,1
729,56,1.0,2,0.3927759528160095,9,0.0,1
730,56,1.0,2,0.5417740345001221,10,1.0,1
731,56,0.0,2,3.1267387866973877,11,1.0,1
732,56,0.0,2,1.7707985639572144,12,0.0,1
733,56,1.0,2,0.7457714676856995,13,1.0,1
734,56,0.0,2,0.15377621352672577,14,0.0,1
735,56,1.0,2,0.3957759141921997,15,1.0,1
736,56,0.0,2,0.5137743949890137,16,1.0,1
737,56,1.0,2,3.1737353801727295,17,1.0,1
738,56,1.0,2,0.780771017074585,18,0.0,1
739,56,1.0,2,1.2437739372253418,19,0.0,1
740,56,0.0,2,2.162808656692505,20,1.0,1
741,56,1.0,2,0.3677762746810913,21,0.0,1
742,56,0.0,2,0.7007720470428467,22,0.0,1
743,56,1.0,2,0.19577628374099731,23,0.0,1
744,56,1.0,2,0.3077765107154846,24,0.0,1
745,56,1.0,2,0.45377516746520996,25,1.0,1
746,56,0.0,2,0.30977651476860046,26,0.0,1
747,56,0.0,2,0.9887683391571045,27,0.0,1
748,56,1.0,2,0.45677512884140015,28,0.0,1
749,56,0.0,2,0.7357715964317322,29,1.0,1
750,56,0.0,2,0.5137743949890137,30,1.0,1
751,56,1.0,2,1.3257777690887451,31,0.0,1
752,56,1.0,2,0.43977534770965576,32,0.0,1
753,56,0.0,2,0.30477648973464966,33,1.0,1
754,56,1.0,2,0.27377644181251526,34,0.0,1
755,56,1.0,2,0.3337765634059906,35,1.0,1
756,56,0.0,2,0.6857722401618958,36,0.0,1
757,56,1.0,2,0.5157743692398071,37,0.0,1
758,56,0.0,2,0.416775643825531,38,0.0,1
759,56,1.0,2,0.9887683391571045,39,1.0,1
760,56,0.0,2,1.3377783298492432,40,1.0,1
761,56,1.0,2,1.2047721147537231,41,0.0,1
762,56,0.0,2,1.6837944984436035,42,1.0,1
763,56,0.0,2,0.5537738800048828,43,0.0,1
764,56,0.0,2,0.38677603006362915,44,0.0,1
765,56,0.0,2,1.565788984298706,45,0.0,1
766,56,1.0,2,0.6237730383872986,46,0.0,1
767,56,0.0,2,1.0917669534683228,47,1.0,1
768,56,0.0,2,1.430782675743103,48,0.0,1
769,56,1.0,2,0.40077584981918335,49,0.0,1
770,56,0.0,2,0.427775502204895,50,1.0,1
771,56,1.0,2,1.0217678546905518,51,1.0,1
772,56,0.0,2,0.3437765836715698,52,1.0,1
773,56,0.0,2,1.0807671546936035,53,1.0,1
774,56,1.0,2,1.7017953395843506,54,1.0,1
775,56,0.0,2,0.23177635669708252,55,1.0,1
776,56,0.0,2,0.25577640533447266,56,1.0,1
777,56,0.0,2,0.7467714548110962,57,0.0,1
778,56,0.0,2,0.28677648305892944,58,0.0,1
779,56,0.0,2,0.3667762875556946,59,0.0,1
780,56,1.0,2,0.7567713260650635,60,1.0,1
781,56,1.0,2,2.5137832164764404,61,0.0,1
782,56,1.0,2,0.13277624547481537,62,1.0,1
783,56,0.0,2,0.3077765107154846,63,1.0,1
784,56,1.0,2,1.1537697315216064,64,1.0,1
785,56,0.0,2,1.547788143157959,65,0.0,1
786,56,0.0,2,0.3507764935493469,66,0.0,1
787,56,1.0,2,0.7317716479301453,67,0.0,1
788,56,0.0,2,1.0157679319381714,68,1.0,1
789,56,0.0,2,0.4407753348350525,69,1.0,1
790,56,0.0,2,0.4617750644683838,70,1.0,1
791,56,1.0,2,0.30977651476860046,71,1.0,1
792,56,1.0,2,0.5247742533683777,72,1.0,1
793,56,0.0,2,3.5797059535980225,73,0.0,1
794,56,0.0,2,0.29577648639678955,74,0.0,1
795,56,1.0,2,0.7337716221809387,75,1.0,1
796,56,1.0,2,0.9987682104110718,76,1.0,1
797,56,1.0,2,0.9787684679031372,77,1.0,1
798,56,1.0,2,0.534774124622345,78,1.0,1
799,56,1.0,2,0.21677632629871368,79,1.0,1
800,56,0.0,2,0.5187743306159973,80,0.0,1
801,56,1.0,2,0.4787748456001282,81,1.0,1
802,56,0.0,2,0.39077597856521606,82,0.0,1
803,56,1.0,2,0.8227704763412476,83,0.0,1
804,56,1.0,2,0.37677615880966187,84,1.0,1
805,56,0.0,2,0.3377765715122223,85,1.0,1
806,56,1.0,2,1.160770058631897,86,1.0,1
807,56,1.0,2,1.547788143157959,87,1.0,1
808,56,1.0,2,0.41077572107315063,88,1.0,1
809,56,0.0,2,0.40377581119537354,89,0.0,1
810,56,1.0,2,0.640772819519043,90,1.0,1
811,56,1.0,2,0.44277530908584595,91,0.0,1
812,56,0.0,2,0.20677630603313446,92,1.0,1
813,3,0.0,0,1.2950273752212524,1,0.0,1
814,3,0.0,0,1.682023048400879,2,0.0,1
815,3,1.0,0,2.7290477752685547,3,1.0,1
816,3,0.0,0,2.7600491046905518,4,0.0,1
817,3,1.0,0,3.5690298080444336,5,0.0,1
818,3,1.0,0,1.6450235843658447,6,1.0,1
819,3,0.0,0,2.9060559272766113,7,0.0,1
820,3,1.0,0,1.5550246238708496,8,1.0,1
821,3,1.0,0,1.2800272703170776,9,1.0,1
822,3,1.0,0,2.537038803100586,10,1.0,1
823,3,1.0,0,1.263027310371399,11,1.0,1
824,3,0.0,0,2.4330339431762695,12,0.0,1
825,3,0.0,0,1.3910267353057861,13,0.0,1
826,3,1.0,0,2.302027702331543,14,1.0,1
827,3,1.0,0,1.5760244131088257,15,0.0,1
828,3,0.0,0,2.36003041267395,16,0.0,1
829,3,1.0,0,1.8500208854675293,17,0.0,1
830,3,1.0,0,2.1870222091674805,18,1.0,1
831,3,1.0,0,1.9190199375152588,19,0.0,1
832,3,1.0,0,4.505961894989014,20,0.0,1
833,3,1.0,0,1.3650270700454712,21,1.0,1
834,3,0.0,0,2.341029644012451,22,0.0,1
835,3,1.0,0,1.7890217304229736,23,1.0,1
836,3,1.0,0,1.3810268640518188,24,1.0,1
837,3,1.0,0,1.3190274238586426,25,1.0,1
838,3,1.0,0,2.815051555633545,26,1.0,1
839,3,1.0,0,1.294027328491211,27,1.0,1
840,3,1.0,0,1.328027367591858,28,1.0,1
841,3,1.0,0,1.4670257568359375,29,1.0,1
842,3,1.0,0,1.1970270872116089,30,1.0,1
843,3,1.0,0,3.3810434341430664,31,1.0,1
844,3,1.0,0,2.1970229148864746,32,1.0,1
845,3,1.0,0,1.565024495124817,33,1.0,1
846,3,1.0,0,1.8080214262008667,34,1.0,1
847,3,0.0,0,1.6140239238739014,35,0.0,1
848,3,1.0,0,1.7030227184295654,36,1.0,1
849,3,0.0,0,4.089992046356201,37,0.0,1
850,3,1.0,0,1.5720244646072388,38,0.0,1
851,3,1.0,0,1.7230224609375,39,1.0,1
852,3,1.0,0,1.7110226154327393,40,1.0,1
853,3,1.0,1,1.8250212669372559,1,1.0,1
854,3,0.0,1,1.8830204010009766,2,1.0,1
855,3,1.0,1,1.9780192375183105,3,0.0,1
856,3,0.0,1,1.3130273818969727,4,0.0,1
857,3,1.0,1,1.4580259323120117,5,1.0,1
858,3,1.0,1,2.1950225830078125,6,1.0,1
859,3,0.0,1,1.3230273723602295,7,0.0,1
860,3,0.0,1,2.293027400970459,8,0.0,1
861,3,1.0,1,3.536032199859619,9,1.0,1
862,3,1.0,1,1.217027187347412,10,1.0,1
863,3,1.0,1,1.2780272960662842,11,1.0,1
864,3,1.0,1,1.4920254945755005,12,1.0,1
865,3,0.0,1,2.4760358333587646,13,0.0,1
866,3,0.0,1,1.4330261945724487,14,0.0,1
867,3,1.0,1,1.5850242376327515,15,1.0,1
868,3,1.0,1,2.005018949508667,16,1.0,1
869,3,1.0,1,1.769021987915039,17,1.0,1
870,3,1.0,1,2.779049873352051,18,1.0,1
871,3,0.0,1,1.2000271081924438,19,0.0,1
872,3,1.0,1,1.294027328491211,20,1.0,1
873,3,0.0,1,1.5500247478485107,21,0.0,1
874,3,0.0,1,1.9640194177627563,22,1.0,1
875,3,1.0,1,3.9819998741149902,23,0.0,1
876,3,1.0,1,1.443026065826416,24,0.0,1
877,3,1.0,1,2.6600444316864014,25,1.0,1
878,3,1.0,1,1.2810273170471191,26,0.0,1
879,3,1.0,1,1.7280224561691284,27,1.0,1
880,3,1.0,1,1.2100272178649902,28,1.0,1
881,3,0.0,1,1.4830255508422852,29,0.0,1
882,3,1.0,1,1.3650270700454712,30,0.0,1
883,3,1.0,1,1.7460222244262695,31,1.0,1
884,3,1.0,1,1.9700193405151367,32,1.0,1
885,3,1.0,1,1.719022512435913,33,1.0,1
886,3,0.0,1,1.75202214717865,34,0.0,1
887,3,0.0,1,2.557039737701416,35,0.0,1
888,3,0.0,1,1.5970242023468018,36,0.0,1
889,3,1.0,1,3.1610593795776367,37,1.0,1
890,3,1.0,1,1.2370271682739258,38,0.0,1
891,3,0.0,1,2.319028377532959,39,0.0,1
892,3,0.0,1,1.4150264263153076,40,0.0,1
893,3,1.0,2,1.4890254735946655,1,0.0,1
894,3,1.0,2,2.0630180835723877,2,1.0,1
895,3,0.0,2,2.011018753051758,3,0.0,1
896,3,1.0,2,1.3740270137786865,4,1.0,1
897,3,0.0,2,2.4850363731384277,5,1.0,1
898,3,0.0,2,2.0330185890197754,6,0.0,1
899,3,1.0,2,1.3200273513793945,7,1.0,1
900,3,1.0,2,3.282050609588623,8,0.0,1
901,3,0.0,2,1.4060266017913818,9,1.0,1
902,3,0.0,2,2.7210474014282227,10,0.0,1
903,3,0.0,2,5.458892822265625,11,0.0,1
904,3,0.0,2,1.8060214519500732,12,1.0,1
905,3,1.0,2,2.1630210876464844,13,1.0,1
906,3,0.0,2,3.04506254196167,14,0.0,1
907,3,0.0,2,1.9560195207595825,15,1.0,1
908,3,0.0,2,1.218027114868164,16,0.0,1
909,3,0.0,2,1.675023078918457,17,1.0,1
910,3,0.0,2,1.9960190057754517,18,1.0,1
911,3,1.0,2,1.9280198812484741,19,0.0,1
912,3,0.0,2,2.1140189170837402,20,0.0,1
913,3,0.0,2,1.8090214729309082,21,1.0,1
914,3,1.0,2,1.8740205764770508,22,1.0,1
915,3,0.0,2,1.8290212154388428,23,0.0,1
916,3,0.0,2,3.943002700805664,24,1.0,1
917,3,1.0,2,1.6950228214263916,25,1.0,1
918,3,1.0,2,1.719022512435913,26,1.0,1
919,3,0.0,2,1.629023790359497,27,1.0,1
920,3,0.0,2,1.4880255460739136,28,1.0,1
921,3,1.0,2,1.217027187347412,29,1.0,1
922,3,1.0,2,2.2100234031677246,30,1.0,1
923,3,0.0,2,1.5810242891311646,31,0.0,1
924,3,0.0,2,2.7350478172302246,32,1.0,1
925,3,1.0,2,1.3290274143218994,33,0.0,1
926,3,0.0,2,2.863053798675537,34,0.0,1
927,3,0.0,2,8.331685066223145,35,1.0,1
928,3,0.0,2,1.3580272197723389,36,0.0,1
929,3,1.0,2,1.674023151397705,37,1.0,1
930,3,0.0,2,2.2440249919891357,38,0.0,1
931,3,0.0,2,1.3830268383026123,39,1.0,1
932,3,1.0,2,1.421026349067688,40,1.0,1
933,4,0.0,0,2.2990024089813232,1,0.0,1
934,4,1.0,0,1.607970118522644,2,0.0,1
935,4,1.0,0,1.2759640216827393,3,1.0,1
936,4,0.0,0,1.217964768409729,4,0.0,1
937,4,0.0,0,0.5649713277816772,5,0.0,1
938,4,0.0,0,1.1459656953811646,6,0.0,1
939,4,0.0,0,1.4799641370773315,7,0.0,1
940,4,1.0,0,0.9329683780670166,8,1.0,1
941,4,0.0,0,0.8139699101448059,9,1.0,1
942,4,1.0,0,1.121966004371643,10,1.0,1
943,4,0.0,0,1.1759653091430664,11,0.0,1
944,4,0.0,0,0.9769678115844727,12,0.0,1
945,4,1.0,0,1.958986520767212,13,1.0,1
946,4,0.0,0,1.314963459968567,14,0.0,1
947,4,1.0,0,1.221964716911316,15,1.0,1
948,4,0.0,0,0.7059713006019592,16,0.0,1
949,4,1.0,0,0.7209711074829102,17,1.0,1
950,4,0.0,0,0.916968584060669,18,0.0,1
951,4,0.0,0,2.5440006256103516,19,0.0,1
952,4,0.0,0,1.9379855394363403,20,0.0,1
953,4,1.0,0,0.613971471786499,21,1.0,1
954,4,0.0,0,0.9309684038162231,22,0.0,1
955,4,1.0,0,1.5399669408798218,23,0.0,1
956,4,0.0,0,0.7519707083702087,24,0.0,1
957,4,1.0,0,1.25896418094635,25,1.0,1
958,4,0.0,0,1.0249671936035156,26,0.0,1
959,4,1.0,0,2.4570069313049316,27,1.0,1
960,4,0.0,0,0.8669692277908325,28,0.0,1
961,4,0.0,0,1.2259646654129028,29,0.0,1
962,4,1.0,0,0.7959701418876648,30,1.0,1
963,4,0.0,0,0.8179698586463928,31,0.0,1
964,4,0.0,0,1.609970211982727,32,0.0,1
965,4,0.0,0,0.9779678583145142,33,0.0,1
966,4,0.0,0,1.3189634084701538,34,1.0,1
967,4,1.0,0,0.9449682235717773,35,0.0,1
968,4,0.0,0,1.9509861469268799,36,1.0,1
969,4,1.0,0,1.7299758195877075,37,1.0,1
970,4,0.0,0,0.7689704895019531,38,0.0,1
971,4,1.0,0,1.1689653396606445,39,1.0,1
972,4,0.0,0,1.3249633312225342,40,0.0,1
973,4,1.0,0,1.1019662618637085,41,1.0,1
974,4,1.0,0,1.0429669618606567,42,1.0,1
975,4,1.0,0,1.3009636402130127,43,1.0,1
976,4,1.0,0,0.7549706697463989,44,1.0,1
977,4,0.0,0,1.4199621677398682,45,0.0,1
978,4,0.0,0,1.8369808197021484,46,0.0,1
979,4,0.0,0,1.8529815673828125,47,0.0,1
980,4,0.0,0,0.7439708113670349,48,0.0,1
981,4,0.0,0,0.613971471786499,49,0.0,1
982,4,0.0,0,1.4419623613357544,50,1.0,1
983,4,0.0,0,0.8759691119194031,51,1.0,1
984,4,0.0,0,0.7629705667495728,52,0.0,1
985,4,0.0,0,1.0909663438796997,53,0.0,1
986,4,1.0,0,1.026967167854309,54,1.0,1
987,4,1.0,0,1.2809638977050781,55,1.0,1
988,4,0.0,0,0.8569693565368652,56,0.0,1
989,4,0.0,0,1.1029661893844604,57,1.0,1
990,4,0.0,0,0.7479707598686218,58,0.0,1
991,4,1.0,0,0.9889676570892334,59,1.0,1
992,4,0.0,0,1.5529675483703613,60,0.0,1
993,4,1.0,0,4.030892848968506,61,1.0,1
994,4,1.0,0,1.31096351146698,62,1.0,1
995,4,0.0,0,1.4759639501571655,63,0.0,1
996,4,1.0,0,0.6009714007377625,64,1.0,1
997,4,1.0,0,0.8989688158035278,65,1.0,1
998,4,1.0,0,0.8059700131416321,66,1.0,1
999,4,0.0,0,1.2829638719558716,67,0.0,1
1000,4,0.0,0,2.3310039043426514,68,1.0,1
1001,4,0.0,0,1.4269620180130005,69,0.0,1
1002,4,0.0,0,1.5169658660888672,70,0.0,1
1003,4,1.0,0,1.2259646654129028,71,1.0,1
1004,4,0.0,0,0.5819714069366455,72,0.0,1
1005,4,0.0,0,0.7439708113670349,73,0.0,1
1006,4,0.0,0,1.446962594985962,74,1.0,1
1007,4,0.0,0,1.335963249206543,75,0.0,1
1008,4,0.0,0,1.0429669618606567,76,0.0,1
1009,4,0.0,0,1.14896559715271,77,0.0,1
1010,4,1.0,0,1.166965365409851,78,1.0,1
1011,4,0.0,0,1.1029661893844604,79,0.0,1
1012,4,1.0,0,0.613971471786499,80,1.0,1
1013,4,0.0,0,1.2799639701843262,81,0.0,1
1014,4,0.0,0,0.6299715042114258,82,0.0,1
1015,4,0.0,0,0.8739691376686096,83,0.0,1
1016,4,0.0,0,0.8259697556495667,84,0.0,1
1017,4,1.0,0,2.6899900436401367,85,0.0,1
1018,4,0.0,0,0.6279714703559875,86,0.0,1
1019,4,0.0,0,0.8609693050384521,87,0.0,1
1020,4,1.0,0,1.14896559715271,88,0.0,1
1021,4,1.0,0,2.6129956245422363,89,1.0,1
1022,4,0.0,0,1.3379632234573364,90,1.0,1
1023,4,0.0,0,1.1389657258987427,91,0.0,1
1024,4,1.0,0,0.938968300819397,92,1.0,1
1025,4,0.0,0,1.4089622497558594,93,0.0,1
1026,4,0.0,0,1.70497465133667,94,0.0,1
1027,4,0.0,0,2.553999900817871,95,0.0,1
1028,4,0.0,0,0.8449695110321045,96,0.0,1
1029,4,1.0,0,1.714975118637085,97,0.0,1
1030,4,0.0,0,1.2959637641906738,98,1.0,1
1031,4,0.0,0,0.857969343662262,99,1.0,1
1032,4,0.0,0,1.5079654455184937,100,0.0,1
1033,4,0.0,0,1.4859644174575806,101,0.0,1
1034,4,1.0,0,1.7159751653671265,102,0.0,1
1035,4,0.0,0,1.4209620952606201,103,0.0,1
1036,4,0.0,0,2.005988597869873,104,0.0,1
1037,4,1.0,0,1.5279663801193237,105,1.0,1
1038,4,1.0,0,1.8859831094741821,106,1.0,1
1039,4,1.0,0,1.104966163635254,107,1.0,1
1040,4,1.0,0,0.6569715142250061,108,1.0,1
1041,4,0.0,0,1.192965030670166,109,0.0,1
1042,4,1.0,0,1.4699636697769165,110,0.0,1
1043,4,0.0,0,0.7419708371162415,111,0.0,1
1044,4,0.0,0,1.1419657468795776,112,1.0,1
1045,4,0.0,0,1.0139673948287964,113,0.0,1
1046,4,0.0,0,0.8859689831733704,114,1.0,1
1047,4,1.0,0,1.3049635887145996,115,0.0,1
1048,4,1.0,0,0.6989713907241821,116,1.0,1
1049,4,0.0,0,0.7039713263511658,117,0.0,1
1050,4,1.0,0,1.8209800720214844,118,0.0,1
1051,4,0.0,0,0.6839715838432312,119,0.0,1
1052,4,1.0,0,0.7019713521003723,120,0.0,1
1053,4,1.0,1,0.6579715013504028,1,1.0,1
1054,4,0.0,1,0.8559693694114685,2,1.0,1
1055,4,1.0,1,2.8599777221679688,3,1.0,1
1056,4,0.0,1,0.6609715223312378,4,1.0,1
1057,4,0.0,1,1.3649628162384033,5,1.0,1
1058,4,0.0,1,2.029989719390869,6,0.0,1
1059,4,0.0,1,1.9299851655960083,7,0.0,1
1060,4,0.0,1,1.8689823150634766,8,1.0,1
1061,4,1.0,1,1.0639667510986328,9,1.0,1
1062,4,0.0,1,0.6699715852737427,10,1.0,1
1063,4,1.0,1,0.7699704766273499,11,0.0,1
1064,4,0.0,1,3.1479568481445312,12,0.0,1
1065,4,0.0,1,1.6399716138839722,13,0.0,1
1066,4,1.0,1,2.750985622406006,14,1.0,1
1067,4,0.0,1,0.8899689316749573,15,0.0,1
1068,4,0.0,1,1.214964747428894,16,1.0,1
1069,4,1.0,1,1.448962688446045,17,1.0,1
1070,4,0.0,1,0.8989688158035278,18,0.0,1
1071,4,0.0,1,1.1119661331176758,19,0.0,1
1072,4,0.0,1,1.1079661846160889,20,0.0,1
1073,4,0.0,1,0.6849715709686279,21,1.0,1
1074,4,1.0,1,0.8649692535400391,22,0.0,1
1075,4,0.0,1,1.0939663648605347,23,0.0,1
1076,4,1.0,1,1.1799652576446533,24,0.0,1
1077,4,0.0,1,1.1499656438827515,25,0.0,1
1078,4,0.0,1,1.4739638566970825,26,0.0,1
1079,4,0.0,1,0.8439695239067078,27,0.0,1
1080,4,1.0,1,0.7819703221321106,28,0.0,1
1081,4,1.0,1,1.0449669361114502,29,0.0,1
1082,4,1.0,1,1.5069653987884521,30,1.0,1
1083,4,0.0,1,0.7699704766273499,31,1.0,1
1084,4,0.0,1,0.5549713373184204,32,1.0,1
1085,4,0.0,1,1.484964370727539,33,0.0,1
1086,4,1.0,1,2.0539908409118652,34,0.0,1
1087,4,1.0,1,1.6249709129333496,35,1.0,1
1088,4,0.0,1,0.7859702706336975,36,0.0,1
1089,4,0.0,1,0.7579706311225891,37,1.0,1
1090,4,0.0,1,0.8239697813987732,38,0.0,1
1091,4,0.0,1,1.1899651288986206,39,0.0,1
1092,4,1.0,1,1.0189672708511353,40,0.0,1
1093,4,1.0,1,0.87996906042099,41,1.0,1
1094,4,0.0,1,2.242999792098999,42,0.0,1
1095,4,1.0,1,1.873982548713684,43,1.0,1
1096,4,1.0,1,0.8779690861701965,44,1.0,1
1097,4,1.0,1,0.8189698457717896,45,1.0,1
1098,4,0.0,1,1.5549676418304443,46,0.0,1
1099,4,0.0,1,3.1869540214538574,47,0.0,1
1100,4,1.0,1,2.517002582550049,48,1.0,1
1101,4,1.0,1,0.7059713006019592,49,1.0,1
1102,4,1.0,1,2.70198917388916,50,1.0,1
1103,4,0.0,1,1.3509629964828491,51,0.0,1
1104,4,0.0,1,1.1579655408859253,52,0.0,1
1105,4,1.0,1,0.9839677810668945,53,0.0,1
1106,4,0.0,1,1.6979743242263794,54,0.0,1
1107,4,0.0,1,1.0209672451019287,55,0.0,1
1108,4,0.0,1,0.7339709401130676,56,0.0,1
1109,4,1.0,1,0.9989675283432007,57,1.0,1
1110,4,0.0,1,1.8979836702346802,58,1.0,1
1111,4,1.0,1,1.6329712867736816,59,1.0,1
1112,4,0.0,1,0.9729678630828857,60,0.0,1
1113,4,0.0,1,2.6359939575195312,61,1.0,1
1114,4,0.0,1,1.2709640264511108,62,0.0,1
1115,4,0.0,1,0.6889715194702148,63,0.0,1
1116,4,0.0,1,0.650971531867981,64,1.0,1
1117,4,1.0,1,0.7739704251289368,65,1.0,1
1118,4,0.0,1,0.8859689831733704,66,0.0,1
1119,4,1.0,1,2.1139936447143555,67,0.0,1
1120,4,1.0,1,1.6399716138839722,68,0.0,1
1121,4,0.0,1,1.0009675025939941,69,0.0,1
1122,4,1.0,1,3.5689263343811035,70,1.0,1
1123,4,1.0,1,1.5329666137695312,71,1.0,1
1124,4,0.0,1,0.706971287727356,72,0.0,1
1125,4,1.0,1,1.5869691371917725,73,1.0,1
1126,4,1.0,1,1.7679775953292847,74,1.0,1
1127,4,0.0,1,4.628849983215332,75,1.0,1
1128,4,1.0,1,0.7559706568717957,76,0.0,1
1129,4,0.0,1,0.6129714250564575,77,0.0,1
1130,4,0.0,1,0.9739679098129272,78,0.0,1
1131,4,0.0,1,0.6519715189933777,79,0.0,1
1132,4,1.0,1,0.8129699230194092,80,0.0,1
1133,4,0.0,1,2.0989930629730225,81,1.0,1
1134,4,1.0,1,1.3609628677368164,82,1.0,1
1135,4,1.0,1,0.8559693694114685,83,0.0,1
1136,4,1.0,1,2.247999906539917,84,0.0,1
1137,4,0.0,1,1.4799641370773315,85,0.0,1
1138,4,0.0,1,1.718975305557251,86,0.0,1
1139,4,0.0,1,2.721987724304199,87,0.0,1
1140,4,1.0,1,1.428961992263794,88,0.0,1
1141,4,1.0,1,1.1179660558700562,89,1.0,1
1142,4,1.0,1,1.1839652061462402,90,1.0,1
1143,4,1.0,1,1.5479673147201538,91,0.0,1
1144,4,0.0,1,1.0589667558670044,92,1.0,1
1145,4,1.0,1,0.959968090057373,93,1.0,1
1146,4,0.0,1,0.9259684681892395,94,0.0,1
1147,4,1.0,1,1.4439624547958374,95,1.0,1
1148,4,1.0,1,2.4620065689086914,96,1.0,1
1149,4,1.0,1,1.4199621677398682,97,1.0,1
1150,4,1.0,1,1.0389670133590698,98,1.0,1
1151,4,1.0,1,1.1679654121398926,99,1.0,1
1152,4,0.0,1,0.9669679403305054,100,1.0,1
1153,4,1.0,1,1.6869738101959229,101,1.0,1
1154,4,1.0,1,1.1579655408859253,102,1.0,1
1155,4,0.0,1,2.6079959869384766,103,1.0,1
1156,4,1.0,1,2.262000560760498,104,1.0,1
1157,4,1.0,1,1.0279672145843506,105,1.0,1
1158,4,0.0,1,1.5069653987884521,106,0.0,1
1159,4,1.0,1,1.4389622211456299,107,1.0,1
1160,4,0.0,1,0.7329709529876709,108,1.0,1
1161,4,0.0,1,1.0989662408828735,109,0.0,1
1162,4,1.0,1,1.0829664468765259,110,1.0,1
1163,4,1.0,1,1.1679654121398926,111,0.0,1
1164,4,0.0,1,1.462963342666626,112,0.0,1
1165,4,0.0,1,2.961970329284668,113,1.0,1
1166,4,0.0,1,1.0199673175811768,114,0.0,1
1167,4,1.0,1,1.0189672708511353,115,0.0,1
1168,4,1.0,1,0.8139699101448059,116,1.0,1
1169,4,1.0,1,0.8609693050384521,117,1.0,1
1170,4,0.0,1,0.9359683990478516,118,1.0,1
1171,4,1.0,1,0.9759678840637207,119,1.0,1
1172,4,0.0,1,0.7059713006019592,120,1.0,1
1173,4,0.0,2,2.3850064277648926,1,0.0,1
1174,4,0.0,2,1.9879878759384155,2,1.0,1
1175,4,0.0,2,0.6849715709686279,3,1.0,1
1176,4,1.0,2,0.6519715189933777,4,1.0,1
1177,4,0.0,2,0.8829690217971802,5,1.0,1
1178,4,0.0,2,0.7299709916114807,6,0.0,1
1179,4,1.0,2,1.100966215133667,7,0.0,1
1180,4,0.0,2,0.9159685969352722,8,0.0,1
1181,4,1.0,2,1.6839736700057983,9,1.0,1
1182,4,0.0,2,1.4169621467590332,10,1.0,1
1183,4,1.0,2,1.0949662923812866,11,0.0,1
1184,4,1.0,2,1.1609654426574707,12,1.0,1
1185,4,0.0,2,2.684990406036377,13,0.0,1
1186,4,1.0,2,1.6859737634658813,14,0.0,1
1187,4,0.0,2,0.8129699230194092,15,1.0,1
1188,4,0.0,2,1.099966287612915,16,1.0,1
1189,4,0.0,2,0.71797114610672,17,0.0,1
1190,4,1.0,2,1.1769652366638184,18,0.0,1
1191,4,0.0,2,1.2259646654129028,19,1.0,1
1192,4,0.0,2,0.6719715595245361,20,0.0,1
1193,4,0.0,2,2.5450005531311035,21,1.0,1
1194,4,0.0,2,0.9959676265716553,22,1.0,1
1195,4,0.0,2,0.8499694466590881,23,0.0,1
1196,4,0.0,2,1.0029674768447876,24,0.0,1
1197,4,1.0,2,1.472963809967041,25,0.0,1
1198,4,1.0,2,0.7239710688591003,26,1.0,1
1199,4,0.0,2,1.964986801147461,27,0.0,1
1200,4,1.0,2,1.3299633264541626,28,1.0,1
1201,4,1.0,2,2.3570051193237305,29,1.0,1
1202,4,1.0,2,0.8189698457717896,30,1.0,1
1203,4,1.0,2,0.912968635559082,31,1.0,1
1204,4,1.0,2,1.2249646186828613,32,0.0,1
1205,4,1.0,2,1.488964557647705,33,1.0,1
1206,4,0.0,2,1.710974931716919,34,1.0,1
1207,4,0.0,2,0.7859702706336975,35,1.0,1
1208,4,1.0,2,0.9529681205749512,36,0.0,1
1209,4,1.0,2,1.284963846206665,37,0.0,1
1210,4,1.0,2,1.83798086643219,38,1.0,1
1211,4,0.0,2,0.9659680128097534,39,0.0,1
1212,4,1.0,2,1.0959663391113281,40,1.0,1
1213,4,1.0,2,0.9579681158065796,41,0.0,1
1214,4,1.0,2,0.6939714550971985,42,0.0,1
1215,4,0.0,2,0.9359683990478516,43,0.0,1
1216,4,0.0,2,0.9989675283432007,44,0.0,1
1217,4,1.0,2,1.494964838027954,45,0.0,1
1218,4,1.0,2,0.7429708242416382,46,1.0,1
1219,4,1.0,2,1.056966781616211,47,1.0,1
1220,4,1.0,2,1.45896315574646,48,1.0,1
1221,4,0.0,2,1.442962408065796,49,1.0,1
1222,4,0.0,2,0.8189698457717896,50,1.0,1
1223,4,0.0,2,1.288963794708252,51,0.0,1
1224,4,1.0,2,3.2899465560913086,52,0.0,1
1225,4,0.0,2,2.1219940185546875,53,0.0,1
1226,4,0.0,2,1.6359714269638062,54,1.0,1
1227,4,1.0,2,1.4189621210098267,55,0.0,1
1228,4,0.0,2,1.9579864740371704,56,1.0,1
1229,4,0.0,2,0.5849713683128357,57,1.0,1
1230,4,0.0,2,1.5139657258987427,58,0.0,1
1231,4,0.0,2,2.810981273651123,59,1.0,1
1232,4,0.0,2,2.836979389190674,60,0.0,1
1233,4,1.0,2,1.1199660301208496,61,1.0,1
1234,4,0.0,2,1.7999790906906128,62,0.0,1
1235,4,0.0,2,0.7649705410003662,63,0.0,1
1236,4,0.0,2,0.7469707727432251,64,1.0,1
1237,4,0.0,2,1.5219660997390747,65,0.0,1
1238,4,1.0,2,2.02398943901062,66,1.0,1
1239,4,1.0,2,0.7649705410003662,67,0.0,1
1240,4,1.0,2,1.6629726886749268,68,0.0,1
1241,4,1.0,2,1.8369808197021484,69,1.0,1
1242,4,0.0,2,0.8789690732955933,70,1.0,1
1243,4,0.0,2,0.9999675750732422,71,0.0,1
1244,4,1.0,2,0.8929688930511475,72,1.0,1
1245,4,1.0,2,0.842969536781311,73,1.0,1
1246,4,1.0,2,0.8639692664146423,74,1.0,1
1247,4,0.0,2,1.5619679689407349,75,1.0,1
1248,4,1.0,2,0.8199698328971863,76,1.0,1
1249,4,0.0,2,1.213964819908142,77,1.0,1
1250,4,0.0,2,0.6709715723991394,78,0.0,1
1251,4,1.0,2,1.484964370727539,79,1.0,1
1252,4,1.0,2,1.3479630947113037,80,0.0,1
1253,4,0.0,2,1.577968716621399,81,1.0,1
1254,4,0.0,2,1.2799639701843262,82,1.0,1
1255,4,1.0,2,1.0279672145843506,83,0.0,1
1256,4,0.0,2,0.912968635559082,84,1.0,1
1257,4,0.0,2,0.7689704895019531,85,1.0,1
1258,4,1.0,2,1.4089622497558594,86,1.0,1
1259,4,1.0,2,0.7459707856178284,87,1.0,1
1260,4,1.0,2,1.1939650774002075,88,1.0,1
1261,4,1.0,2,1.5159658193588257,89,1.0,1
1262,4,1.0,2,1.8269803524017334,90,1.0,1
1263,4,0.0,2,1.3919625282287598,91,1.0,1
1264,4,0.0,2,0.7759703993797302,92,0.0,1
1265,4,1.0,2,1.0709666013717651,93,0.0,1
1266,4,0.0,2,0.6599715352058411,94,0.0,1
1267,4,1.0,2,1.986987829208374,95,0.0,1
1268,4,0.0,2,1.7689776420593262,96,0.0,1
1269,4,0.0,2,1.1029661893844604,97,0.0,1
1270,4,0.0,2,0.9109686613082886,98,0.0,1
1271,4,1.0,2,0.6759715676307678,99,0.0,1
1272,4,0.0,2,0.6669715642929077,100,0.0,1
1273,4,1.0,2,2.2990024089813232,101,0.0,1
1274,4,1.0,2,0.7349709272384644,102,0.0,1
1275,4,1.0,2,0.8169698715209961,103,1.0,1
1276,4,1.0,2,1.3169634342193604,104,1.0,1
1277,4,0.0,2,0.8979688286781311,105,1.0,1
1278,4,1.0,2,1.1409657001495361,106,0.0,1
1279,4,0.0,2,1.354962944984436,107,1.0,1
1280,4,0.0,2,0.8839690089225769,108,0.0,1
1281,4,0.0,2,4.092888355255127,109,0.0,1
1282,4,0.0,2,1.4089622497558594,110,1.0,1
1283,4,0.0,2,1.059966802597046,111,0.0,1
1284,4,1.0,2,2.011988878250122,112,0.0,1
1285,4,1.0,2,1.3189634084701538,113,0.0,1
1286,4,0.0,2,2.3050026893615723,114,1.0,1
1287,4,0.0,2,0.7939701676368713,115,0.0,1
1288,4,1.0,2,0.7829703092575073,116,1.0,1
1289,4,1.0,2,0.7609705924987793,117,1.0,1
1290,4,0.0,2,0.8239697813987732,118,1.0,1
1291,4,0.0,2,1.4479626417160034,119,0.0,1
1292,4,1.0,2,1.8059793710708618,120,1.0,1
1293,5,0.0,0,0.7604687213897705,1,0.0,1
1294,5,0.0,0,1.4344607591629028,2,0.0,1
1295,5,0.0,0,1.3544617891311646,3,0.0,1
1296,5,1.0,0,1.3844614028930664,4,1.0,1
1297,5,1.0,0,1.3714616298675537,5,1.0,1
1298,5,0.0,0,0.6494684815406799,6,0.0,1
1299,5,0.0,0,0.7004685401916504,7,0.0,1
1300,5,0.0,0,1.631462574005127,8,0.0,1
1301,5,1.0,0,1.2034637928009033,9,1.0,1
1302,5,1.0,0,0.6244684457778931,10,0.0,1
1303,5,1.0,0,1.5924607515335083,11,0.0,1
1304,5,1.0,0,0.7244685888290405,12,1.0,1
1305,5,1.0,0,0.7374686598777771,13,1.0,1
1306,5,1.0,0,1.5994610786437988,14,1.0,1
1307,5,1.0,0,1.4204609394073486,15,1.0,1
1308,5,1.0,0,0.6424684524536133,16,1.0,1
1309,5,1.0,0,1.5274596214294434,17,1.0,1
1310,5,0.0,0,0.6244684457778931,18,0.0,1
1311,5,1.0,0,0.8794678449630737,19,1.0,1
1312,5,1.0,0,1.313462257385254,20,1.0,1
1313,5,1.0,0,0.7804687023162842,21,1.0,1
1314,5,1.0,0,0.985466480255127,22,1.0,1
1315,5,1.0,0,1.4804601669311523,23,1.0,1
1316,5,1.0,0,0.9604668617248535,24,0.0,1
1317,5,1.0,0,0.6784685254096985,25,1.0,1
1318,5,1.0,0,1.3204622268676758,26,1.0,1
1319,5,1.0,0,0.7844687700271606,27,1.0,1
1320,5,1.0,0,1.2974624633789062,28,1.0,1
1321,5,1.0,0,0.8374683856964111,29,1.0,1
1322,5,1.0,0,1.1314647197723389,30,1.0,1
1323,5,1.0,0,0.7584686875343323,31,1.0,1
1324,5,1.0,0,1.1834640502929688,32,1.0,1
1325,5,1.0,0,0.8744679689407349,33,1.0,1
1326,5,1.0,0,1.449460506439209,34,1.0,1
1327,5,1.0,0,1.0374658107757568,35,1.0,1
1328,5,0.0,0,1.5084598064422607,36,0.0,1
1329,5,1.0,0,1.165464162826538,37,0.0,1
1330,5,1.0,0,0.7174686193466187,38,1.0,1
1331,5,1.0,0,1.541459321975708,39,1.0,1
1332,5,1.0,0,0.8254685401916504,40,1.0,1
1333,5,0.0,1,0.8514682054519653,1,0.0,1
1334,5,1.0,1,0.984466552734375,2,1.0,1
1335,5,0.0,1,0.6504684686660767,3,0.0,1
1336,5,0.0,1,1.4754602909088135,4,0.0,1
1337,5,0.0,1,0.7244685888290405,5,0.0,1
1338,5,0.0,1,0.7804687023162842,6,0.0,1
1339,5,1.0,1,0.9294672012329102,7,0.0,1
1340,5,1.0,1,0.7584686875343323,8,1.0,1
1341,5,0.0,1,0.9504669904708862,9,0.0,1
1342,5,1.0,1,0.6754685044288635,10,0.0,1
1343,5,1.0,1,1.2264634370803833,11,1.0,1
1344,5,0.0,1,1.213463544845581,12,1.0,1
1345,5,0.0,1,0.777468740940094,13,0.0,1
1346,5,0.0,1,1.080465316772461,14,0.0,1
1347,5,1.0,1,1.5014598369598389,15,1.0,1
1348,5,1.0,1,0.7864687442779541,16,0.0,1
1349,5,1.0,1,0.7024685740470886,17,0.0,1
1350,5,0.0,1,0.870468020439148,18,0.0,1
1351,5,1.0,1,1.219463586807251,19,1.0,1
1352,5,1.0,1,1.405461072921753,20,1.0,1
1353,5,1.0,1,0.9564669132232666,21,0.0,1
1354,5,0.0,1,0.7054685950279236,22,1.0,1
1355,5,0.0,1,1.0534656047821045,23,0.0,1
1356,5,1.0,1,1.313462257385254,24,1.0,1
1357,5,0.0,1,0.6724685430526733,25,1.0,1
1358,5,0.0,1,0.8724679946899414,26,1.0,1
1359,5,1.0,1,1.1924638748168945,27,1.0,1
1360,5,1.0,1,2.0874838829040527,28,1.0,1
1361,5,0.0,1,0.9654667377471924,29,0.0,1
1362,5,1.0,1,0.7644686698913574,30,1.0,1
1363,5,1.0,1,1.077465295791626,31,1.0,1
1364,5,0.0,1,1.0854651927947998,32,1.0,1
1365,5,1.0,1,0.7004685401916504,33,1.0,1
1366,5,1.0,1,1.4374606609344482,34,1.0,1
1367,5,1.0,1,0.8264685869216919,35,1.0,1
1368,5,0.0,1,0.9924664497375488,36,0.0,1
1369,5,1.0,1,1.0874652862548828,37,1.0,1
1370,5,1.0,1,0.7874687314033508,38,1.0,1
1371,5,1.0,1,0.6774685382843018,39,1.0,1
1372,5,0.0,1,1.6164618730545044,40,0.0,1
1373,5,1.0,2,1.1314647197723389,1,0.0,1
1374,5,1.0,2,1.8374722003936768,2,1.0,1
1375,5,0.0,2,1.1324646472930908,3,0.0,1
1376,5,0.0,2,0.7554686665534973,4,0.0,1
1377,5,0.0,2,1.2894625663757324,5,0.0,1
1378,5,1.0,2,0.6534684896469116,6,0.0,1
1379,5,1.0,2,1.8084708452224731,7,1.0,1
1380,5,1.0,2,1.1304646730422974,8,1.0,1
1381,5,0.0,2,1.102465033531189,9,1.0,1
1382,5,0.0,2,0.6884685754776001,10,0.0,1
1383,5,0.0,2,0.8514682054519653,11,0.0,1
1384,5,0.0,2,1.0784653425216675,12,0.0,1
1385,5,0.0,2,0.9264672994613647,13,1.0,1
1386,5,1.0,2,0.792468786239624,14,0.0,1
1387,5,0.0,2,0.6874685287475586,15,1.0,1
1388,5,0.0,2,1.2744628190994263,16,0.0,1
1389,5,0.0,2,1.3494617938995361,17,0.0,1
1390,5,0.0,2,1.1084649562835693,18,0.0,1
1391,5,0.0,2,0.6854685544967651,19,1.0,1
1392,5,1.0,2,1.4244608879089355,20,0.0,1
1393,5,1.0,2,1.8704737424850464,21,1.0,1
1394,5,0.0,2,1.217463493347168,22,1.0,1
1395,5,0.0,2,0.8264685869216919,23,0.0,1
1396,5,0.0,2,1.3274621963500977,24,1.0,1
1397,5,1.0,2,0.8154686689376831,25,0.0,1
1398,5,0.0,2,0.6624684929847717,26,1.0,1
1399,5,0.0,2,0.8994675874710083,27,1.0,1
1400,5,0.0,2,0.9784666299819946,28,1.0,1
1401,5,0.0,2,1.0024663209915161,29,1.0,1
1402,5,0.0,2,0.8424683809280396,30,1.0,1
1403,5,0.0,2,0.7044686079025269,31,0.0,1
1404,5,0.0,2,0.7494686841964722,32,0.0,1
1405,5,1.0,2,0.7634686827659607,33,0.0,1
1406,5,0.0,2,2.201489210128784,34,0.0,1
1407,5,1.0,2,3.3534483909606934,35,0.0,1
1408,5,0.0,2,0.8044687509536743,36,0.0,1
1409,5,0.0,2,1.173464059829712,37,0.0,1
1410,5,0.0,2,0.7604687213897705,38,1.0,1
1411,5,1.0,2,0.9134674072265625,39,1.0,1
1412,5,0.0,2,1.2494630813598633,40,0.0,1
1413,6,1.0,0,2.8650307655334473,1,1.0,1
1414,6,1.0,0,0.9610229730606079,2,1.0,1
1415,6,1.0,0,1.6700294017791748,3,1.0,1
1416,6,1.0,0,0.7620254755020142,4,1.0,1
1417,6,0.0,0,1.6000261306762695,5,0.0,1
1418,6,1.0,0,2.998021125793457,6,1.0,1
1419,6,1.0,0,1.478020429611206,7,1.0,1
1420,6,1.0,0,1.171020269393921,8,1.0,1
1421,6,1.0,0,0.6490267515182495,9,1.0,1
1422,6,1.0,0,3.4599876403808594,10,1.0,1
1423,6,1.0,0,2.740039825439453,11,0.0,1
1424,6,1.0,0,1.2980185747146606,12,1.0,1
1425,6,1.0,0,2.9420251846313477,13,1.0,1
1426,6,1.0,0,2.1050496101379395,14,1.0,1
1427,6,1.0,0,1.3230183124542236,15,1.0,1
1428,6,1.0,0,0.9260233640670776,16,1.0,1
1429,6,1.0,0,0.8590242266654968,17,1.0,1
1430,6,1.0,0,2.1420514583587646,18,1.0,1
1431,6,1.0,0,3.4339895248413086,19,1.0,1
1432,6,1.0,0,0.6840264797210693,20,0.0,1
1433,6,1.0,0,0.7660254240036011,21,0.0,1
1434,6,0.0,0,1.7760343551635742,22,0.0,1
1435,6,0.0,0,4.9538798332214355,23,0.0,1
1436,6,0.0,0,0.9230234622955322,24,1.0,1
1437,6,1.0,0,2.6480464935302734,25,1.0,1
1438,6,1.0,0,2.7330403327941895,26,1.0,1
1439,6,1.0,0,0.598026692867279,27,0.0,1
1440,6,0.0,0,1.6120266914367676,28,0.0,1
1441,6,1.0,0,2.266057252883911,29,1.0,1
1442,6,1.0,0,0.667026698589325,30,1.0,1
1443,6,1.0,0,1.1000211238861084,31,1.0,1
1444,6,0.0,0,2.8430323600769043,32,0.0,1
1445,6,1.0,0,1.2390193939208984,33,1.0,1
1446,6,1.0,0,0.6360267400741577,34,1.0,1
1447,6,1.0,0,1.0910212993621826,35,1.0,1
1448,6,1.0,0,1.6370278596878052,36,1.0,1
1449,6,1.0,0,1.460019588470459,37,1.0,1
1450,6,1.0,0,0.5620266199111938,38,1.0,1
1451,6,1.0,0,1.0830214023590088,39,0.0,1
1452,6,1.0,0,1.1510205268859863,40,1.0,1
1453,6,1.0,0,3.5649800300598145,41,1.0,1
1454,6,1.0,0,4.780892372131348,42,0.0,1
1455,6,1.0,0,2.280057907104492,43,0.0,1
1456,6,1.0,0,2.8010354042053223,44,0.0,1
1457,6,1.0,0,1.2660189867019653,45,0.0,1
1458,6,0.0,0,1.4290181398391724,46,0.0,1
1459,6,0.0,0,3.4729866981506348,47,0.0,1
1460,6,0.0,0,1.9060404300689697,48,1.0,1
1461,6,1.0,0,0.7280259132385254,49,0.0,1
1462,6,1.0,0,0.7850251793861389,50,0.0,1
1463,6,0.0,0,2.9630236625671387,51,0.0,1
1464,6,0.0,0,3.1110129356384277,52,0.0,1
1465,6,1.0,0,0.9650229215621948,53,0.0,1
1466,6,1.0,0,0.8660241365432739,54,0.0,1
1467,6,0.0,0,3.8419599533081055,55,1.0,1
1468,6,0.0,0,3.003020763397217,56,0.0,1
1469,6,0.0,0,0.9550230503082275,57,0.0,1
1470,6,0.0,0,2.598050117492676,58,0.0,1
1471,6,1.0,0,0.9680228233337402,59,1.0,1
1472,6,1.0,1,5.435844898223877,1,1.0,1
1473,6,1.0,1,4.390920162200928,2,1.0,1
1474,6,0.0,1,3.022019386291504,3,1.0,1
1475,6,0.0,1,2.258056879043579,4,0.0,1
1476,6,1.0,1,1.348017930984497,5,0.0,1
1477,6,1.0,1,0.8100248575210571,6,1.0,1
1478,6,1.0,1,1.4870208501815796,7,0.0,1
1479,6,1.0,1,2.0500471591949463,8,0.0,1
1480,6,0.0,1,1.2270195484161377,9,0.0,1
1481,6,1.0,1,6.5547637939453125,10,1.0,1
1482,6,0.0,1,0.7200260162353516,11,1.0,1
1483,6,0.0,1,1.613026738166809,12,1.0,1
1484,6,1.0,1,1.4550193548202515,13,0.0,1
1485,6,0.0,1,0.7490256428718567,14,0.0,1
1486,6,1.0,1,1.4870208501815796,15,1.0,1
1487,6,1.0,1,0.7990249991416931,16,0.0,1
1488,6,0.0,1,3.594977855682373,17,1.0,1
1489,6,0.0,1,2.570052146911621,18,0.0,1
1490,6,1.0,1,2.8120346069335938,19,1.0,1
1491,6,1.0,1,2.3630616664886475,20,0.0,1
1492,6,1.0,1,3.8849568367004395,21,0.0,1
1493,6,1.0,1,0.8450244069099426,22,1.0,1
1494,6,1.0,1,1.3400180339813232,23,1.0,1
1495,6,1.0,1,0.8390244841575623,24,1.0,1
1496,6,1.0,1,1.948042392730713,25,1.0,1
1497,6,1.0,1,0.9300233125686646,26,1.0,1
1498,6,0.0,1,3.7329678535461426,27,1.0,1
1499,6,1.0,1,1.9160408973693848,28,0.0,1
1500,6,1.0,1,4.540909767150879,29,0.0,1
1501,6,0.0,1,2.1340510845184326,30,1.0,1
1502,6,0.0,1,1.4910210371017456,31,1.0,1
1503,6,0.0,1,1.9010401964187622,32,0.0,1
1504,6,0.0,1,2.4290623664855957,33,0.0,1
1505,6,1.0,1,2.3120594024658203,34,0.0,1
1506,6,1.0,1,2.3090591430664062,35,1.0,1
1507,6,1.0,1,1.6390279531478882,36,1.0,1
1508,6,1.0,1,1.9790438413619995,37,0.0,1
1509,6,1.0,1,1.5550240278244019,38,1.0,1
1510,6,1.0,1,0.8190247416496277,39,1.0,1
1511,6,0.0,1,7.187717914581299,40,0.0,1
1512,6,1.0,1,1.3200182914733887,41,1.0,1
1513,6,1.0,1,2.5390543937683105,42,1.0,1
1514,6,1.0,1,0.7240259647369385,43,1.0,1
1515,6,1.0,1,0.7760252952575684,44,0.0,1
1516,6,1.0,1,0.9250234365463257,45,1.0,1
1517,6,1.0,1,0.781025230884552,46,1.0,1
1518,6,1.0,1,2.0760483741760254,47,1.0,1
1519,6,1.0,1,1.4210177659988403,48,0.0,1
1520,6,1.0,1,1.825036644935608,49,1.0,1
1521,6,1.0,1,1.0400218963623047,50,1.0,1
1522,6,1.0,1,1.571024775505066,51,0.0,1
1523,6,1.0,1,1.1520204544067383,52,0.0,1
1524,6,0.0,1,1.9870442152023315,53,1.0,1
1525,6,0.0,1,1.0790214538574219,54,1.0,1
1526,6,0.0,1,1.0890213251113892,55,0.0,1
1527,6,1.0,1,1.6800298690795898,56,1.0,1
1528,6,1.0,1,3.3329968452453613,57,0.0,1
1529,6,1.0,1,0.6760265827178955,58,1.0,1
1530,6,1.0,1,2.9220266342163086,59,1.0,1
1531,6,1.0,1,1.326018214225769,60,0.0,1
1532,6,1.0,2,1.726032018661499,1,0.0,1
1533,6,0.0,2,1.6670292615890503,2,1.0,1
1534,6,1.0,2,3.195006847381592,3,1.0,1
1535,6,1.0,2,1.0540217161178589,4,0.0,1
1536,6,0.0,2,1.193019986152649,5,0.0,1
1537,6,0.0,2,1.1490205526351929,6,0.0,1
1538,6,0.0,2,5.323853015899658,7,0.0,1
1539,6,1.0,2,1.6730295419692993,8,0.0,1
1540,6,1.0,2,1.599026083946228,9,0.0,1
1541,6,1.0,2,4.713897228240967,10,1.0,1
1542,6,1.0,2,1.615026831626892,11,1.0,1
1543,6,1.0,2,1.3210183382034302,12,1.0,1
1544,6,1.0,2,1.4710201025009155,13,1.0,1
1545,6,1.0,2,3.2660017013549805,14,0.0,1
1546,6,1.0,2,1.8880395889282227,15,0.0,1
1547,6,0.0,2,3.3529953956604004,16,0.0,1
1548,6,0.0,2,1.6340277194976807,17,1.0,1
1549,6,1.0,2,2.702042579650879,18,1.0,1
1550,6,1.0,2,0.9190235137939453,19,1.0,1
1551,6,1.0,2,2.8760299682617188,20,1.0,1
1552,6,1.0,2,0.7930250763893127,21,0.0,1
1553,6,0.0,2,0.9110236167907715,22,0.0,1
1554,6,1.0,2,4.184935092926025,23,1.0,1
1555,6,1.0,2,2.464059829711914,24,0.0,1
1556,6,0.0,2,1.5530239343643188,25,1.0,1
1557,6,0.0,2,1.4490190744400024,26,0.0,1
1558,6,0.0,2,0.8460243940353394,27,0.0,1
1559,6,1.0,2,0.6820265054702759,28,0.0,1
1560,6,1.0,2,2.002044916152954,29,0.0,1
1561,6,1.0,2,0.74802565574646,30,1.0,1
1562,6,1.0,2,0.8720240592956543,31,0.0,1
1563,6,1.0,2,3.445988655090332,32,1.0,1
1564,6,0.0,2,1.3660176992416382,33,0.0,1
1565,6,0.0,2,1.3610178232192993,34,0.0,1
1566,6,1.0,2,4.5059123039245605,35,1.0,1
1567,6,0.0,2,2.913027286529541,36,0.0,1
1568,6,1.0,2,0.9200234413146973,37,0.0,1
1569,6,1.0,2,1.6200270652770996,38,1.0,1
1570,6,1.0,2,1.1320207118988037,39,1.0,1
1571,6,1.0,2,1.7620337009429932,40,1.0,1
1572,6,1.0,2,3.8849568367004395,41,1.0,1
1573,6,1.0,2,1.120020866394043,42,1.0,1
1574,6,1.0,2,2.446061134338379,43,0.0,1
1575,6,0.0,2,1.1950199604034424,44,0.0,1
1576,6,1.0,2,1.4100172519683838,45,0.0,1
1577,6,0.0,2,2.198054075241089,46,1.0,1
1578,6,0.0,2,2.1410512924194336,47,0.0,1
1579,6,1.0,2,1.4120173454284668,48,1.0,1
1580,6,1.0,2,0.6040266752243042,49,1.0,1
1581,6,1.0,2,3.6279754638671875,50,1.0,1
1582,6,0.0,2,1.8680386543273926,51,0.0,1
1583,6,1.0,2,1.456019401550293,52,1.0,1
1584,6,1.0,2,2.443061351776123,53,1.0,1
1585,6,1.0,2,0.6310267448425293,54,0.0,1
1586,6,0.0,2,2.5180559158325195,55,1.0,1
1587,6,0.0,2,2.5390543937683105,56,0.0,1
1588,6,1.0,2,0.8190247416496277,57,1.0,1
1589,6,0.0,2,1.744032859802246,58,1.0,1
1590,6,0.0,2,1.3280181884765625,59,1.0,1
1591,6,1.0,2,1.6670292615890503,60,1.0,1
1592,8,1.0,0,1.1705446243286133,1,0.0,1
1593,8,0.0,0,1.747541069984436,2,0.0,1
1594,8,1.0,0,4.55544900894165,3,1.0,1
1595,8,1.0,0,1.2965431213378906,4,1.0,1
1596,8,1.0,0,2.4815754890441895,5,1.0,1
1597,8,1.0,0,2.0175538063049316,6,1.0,1
1598,8,1.0,0,1.6185388565063477,7,0.0,1
1599,8,1.0,0,3.8694987297058105,8,1.0,1
1600,8,1.0,0,2.8725709915161133,9,1.0,1
1601,8,0.0,0,9.86962890625,10,1.0,1
1602,8,1.0,0,2.7625789642333984,11,1.0,1
1603,8,1.0,0,1.3095428943634033,12,0.0,1
1604,8,0.0,0,3.4185314178466797,13,0.0,1
1605,8,0.0,0,0.9905469417572021,14,1.0,1
1606,8,0.0,0,0.9025476574897766,15,0.0,1
1607,8,1.0,0,0.9325476884841919,16,0.0,1
1608,8,1.0,0,1.3325426578521729,17,1.0,1
1609,8,0.0,0,3.496525764465332,18,0.0,1
1610,8,1.0,0,5.963347434997559,19,1.0,1
1611,8,0.0,0,1.3505423069000244,20,0.0,1
1612,8,0.0,0,1.7605416774749756,21,1.0,1
1613,8,0.0,0,2.2565648555755615,22,0.0,1
1614,8,0.0,0,2.668584108352661,23,0.0,1
1615,8,1.0,0,1.06454598903656,24,1.0,1
1616,8,0.0,0,0.8375475406646729,25,0.0,1
1617,8,1.0,0,1.024546504020691,26,1.0,1
1618,8,0.0,0,1.9495505094528198,27,0.0,1
1619,8,1.0,0,3.0785560607910156,28,1.0,1
1620,8,1.0,0,1.2885432243347168,29,1.0,1
1621,8,1.0,0,1.3145427703857422,30,1.0,1
1622,8,1.0,0,1.0075467824935913,31,1.0,1
1623,8,1.0,0,3.752507209777832,32,1.0,1
1624,8,1.0,0,3.4415297508239746,33,0.0,1
1625,8,1.0,0,3.053557872772217,34,1.0,1
1626,8,0.0,0,1.2585434913635254,35,0.0,1
1627,8,1.0,0,1.483540654182434,36,1.0,1
1628,8,1.0,0,3.368535041809082,37,1.0,1
1629,8,1.0,0,1.090545654296875,38,1.0,1
1630,8,0.0,0,1.5385398864746094,39,0.0,1
1631,8,1.0,0,3.0775561332702637,40,1.0,1
1632,8,1.0,1,0.8235474824905396,1,1.0,1
1633,8,1.0,1,1.1405450105667114,2,1.0,1
1634,8,1.0,1,2.9965620040893555,3,1.0,1
1635,8,0.0,1,1.6215388774871826,4,0.0,1
1636,8,0.0,1,1.8895477056503296,5,1.0,1
1637,8,1.0,1,1.9035483598709106,6,0.0,1
1638,8,0.0,1,1.2575435638427734,7,0.0,1
1639,8,1.0,1,1.4195414781570435,8,1.0,1
1640,8,1.0,1,5.493381500244141,9,0.0,1
1641,8,1.0,1,1.0185465812683105,10,1.0,1
1642,8,0.0,1,1.2195440530776978,11,0.0,1
1643,8,0.0,1,3.1455512046813965,12,0.0,1
1644,8,0.0,1,1.1775445938110352,13,0.0,1
1645,8,1.0,1,1.5215401649475098,14,0.0,1
1646,8,0.0,1,2.097557544708252,15,0.0,1
1647,8,1.0,1,1.2535436153411865,16,1.0,1
1648,8,0.0,1,1.0955456495285034,17,0.0,1
1649,8,0.0,1,0.8505475521087646,18,1.0,1
1650,8,1.0,1,1.649538516998291,19,0.0,1
1651,8,1.0,1,1.9965527057647705,20,0.0,1
1652,8,1.0,1,2.073556423187256,21,1.0,1
1653,8,0.0,1,1.8995481729507446,22,0.0,1
1654,8,0.0,1,3.714509963989258,23,1.0,1
1655,8,1.0,1,1.27854323387146,24,1.0,1
1656,8,0.0,1,0.9305477142333984,25,0.0,1
1657,8,1.0,1,1.0185465812683105,26,0.0,1
1658,8,0.0,1,1.9335497617721558,27,1.0,1
1659,8,1.0,1,3.7815051078796387,28,1.0,1
1660,8,0.0,1,1.991552472114563,29,1.0,1
1661,8,0.0,1,1.8165442943572998,30,0.0,1
1662,8,1.0,1,2.609581470489502,31,1.0,1
1663,8,0.0,1,1.9025483131408691,32,1.0,1
1664,8,1.0,1,2.406571865081787,33,1.0,1
1665,8,1.0,1,1.514540195465088,34,1.0,1
1666,8,1.0,1,1.2925431728363037,35,1.0,1
1667,8,1.0,1,1.9025483131408691,36,1.0,1
1668,8,1.0,1,0.9815471172332764,37,1.0,1
1669,8,1.0,1,1.2495436668395996,38,0.0,1
1670,8,0.0,1,1.5715395212173462,39,1.0,1
1671,8,1.0,2,2.9945621490478516,1,0.0,1
1672,8,0.0,2,1.3585422039031982,2,0.0,1
1673,8,0.0,2,0.91054767370224,3,0.0,1
1674,8,0.0,2,8.104191780090332,4,0.0,1
1675,8,1.0,2,2.415572166442871,5,0.0,1
1676,8,1.0,2,1.4755407571792603,6,0.0,1
1677,8,1.0,2,2.174561023712158,7,0.0,1
1678,8,0.0,2,1.20354425907135,8,1.0,1
1679,8,0.0,2,4.185475826263428,9,0.0,1
1680,8,0.0,2,1.322542667388916,10,1.0,1
1681,8,1.0,2,2.127558708190918,11,1.0,1
1682,8,1.0,2,1.1675447225570679,12,1.0,1
1683,8,0.0,2,1.6635383367538452,13,1.0,1
1684,8,1.0,2,2.3025670051574707,14,1.0,1
1685,8,0.0,2,2.9115681648254395,15,1.0,1
1686,8,0.0,2,6.682295322418213,16,1.0,1
1687,8,1.0,2,3.8495001792907715,17,0.0,1
1688,8,1.0,2,1.0225465297698975,18,1.0,1
1689,8,1.0,2,1.4225413799285889,19,0.0,1
1690,8,1.0,2,4.934422016143799,20,1.0,1
1691,8,0.0,2,1.0275465250015259,21,0.0,1
1692,8,1.0,2,2.597580909729004,22,1.0,1
1693,8,1.0,2,1.4935405254364014,23,1.0,1
1694,8,0.0,2,2.103557586669922,24,1.0,1
1695,8,0.0,2,1.74354088306427,25,0.0,1
1696,8,0.0,2,1.20354425907135,26,0.0,1
1697,8,0.0,2,1.0665459632873535,27,1.0,1
1698,8,0.0,2,3.135551929473877,28,0.0,1
1699,8,0.0,2,2.2155628204345703,29,1.0,1
1700,8,1.0,2,1.0775458812713623,30,0.0,1
1701,8,0.0,2,1.3305425643920898,31,0.0,1
1702,8,1.0,2,1.7025389671325684,32,0.0,1
1703,8,1.0,2,1.164544701576233,33,0.0,1
1704,8,1.0,2,1.2955430746078491,34,1.0,1
1705,8,0.0,2,1.623538851737976,35,1.0,1
1706,8,0.0,2,1.2635434865951538,36,0.0,1
1707,8,0.0,2,0.858547568321228,37,1.0,1
1708,8,1.0,2,1.4045417308807373,38,0.0,1
1709,8,1.0,2,1.0835458040237427,39,1.0,1
1710,8,1.0,2,2.409572124481201,40,1.0,1
1711,12,1.0,0,1.828067660331726,1,1.0,1
1712,12,0.0,0,0.8330557346343994,2,0.0,1
1713,12,1.0,0,1.3500491380691528,3,1.0,1
1714,12,1.0,0,1.6310584545135498,4,1.0,1
1715,12,1.0,0,0.6300578713417053,5,1.0,1
1716,12,1.0,0,1.1460517644882202,6,1.0,1
1717,12,1.0,0,0.6830576658248901,7,1.0,1
1718,12,1.0,0,1.291049838066101,8,0.0,1
1719,12,1.0,0,0.783056378364563,9,1.0,1
1720,12,1.0,0,0.7920562624931335,10,0.0,1
1721,12,1.0,0,0.7580567002296448,11,1.0,1
1722,12,1.0,0,0.6500579118728638,12,1.0,1
1723,12,1.0,0,1.1690514087677002,13,1.0,1
1724,12,1.0,0,1.0080535411834717,14,1.0,1
1725,12,1.0,0,2.6720762252807617,15,1.0,1
1726,12,0.0,0,1.3580490350723267,16,1.0,1
1727,12,1.0,0,2.0640788078308105,17,1.0,1
1728,12,1.0,0,0.8010561466217041,18,1.0,1
1729,12,1.0,0,0.772056519985199,19,1.0,1
1730,12,1.0,0,0.7810564041137695,20,1.0,1
1731,12,1.0,0,0.5490577220916748,21,1.0,1
1732,12,1.0,0,1.0680527687072754,22,1.0,1
1733,12,1.0,0,1.1380518674850464,23,0.0,1
1734,12,0.0,0,2.561084270477295,24,0.0,1
1735,12,1.0,0,1.0600528717041016,25,1.0,1
1736,12,1.0,0,1.0740526914596558,26,1.0,1
1737,12,1.0,0,1.276050090789795,27,1.0,1
1738,12,0.0,0,3.136042594909668,28,0.0,1
1739,12,0.0,0,1.4580503702163696,29,0.0,1
1740,12,1.0,0,1.828067660331726,30,1.0,1
1741,12,1.0,0,0.7670565843582153,31,1.0,1
1742,12,1.0,0,0.9240546226501465,32,1.0,1
1743,12,0.0,0,0.993053674697876,33,0.0,1
1744,12,1.0,0,1.8500686883926392,34,1.0,1
1745,12,1.0,0,0.5710577368736267,35,1.0,1
1746,12,1.0,0,1.0900524854660034,36,1.0,1
1747,12,1.0,0,0.5680577158927917,37,1.0,1
1748,12,1.0,0,0.5680577158927917,38,1.0,1
1749,12,1.0,0,1.572055697441101,39,1.0,1
1750,12,1.0,0,0.9490542411804199,40,1.0,1
1751,12,1.0,0,0.8360556960105896,41,0.0,1
1752,12,1.0,0,0.7690565586090088,42,1.0,1
1753,12,1.0,0,1.3660489320755005,43,1.0,1
1754,12,1.0,0,1.669060230255127,44,1.0,1
1755,12,1.0,0,0.6540579199790955,45,1.0,1
1756,12,1.0,0,0.8280557990074158,46,1.0,1
1757,12,1.0,0,0.6940575242042542,47,1.0,1
1758,12,1.0,0,0.6300578713417053,48,1.0,1
1759,12,0.0,0,0.8620553612709045,49,0.0,1
1760,12,1.0,0,1.298049807548523,50,1.0,1
1761,12,1.0,0,1.5350539684295654,51,1.0,1
1762,12,1.0,0,2.152082920074463,52,1.0,1
1763,12,1.0,0,2.234086751937866,53,1.0,1
1764,12,1.0,0,0.6230578422546387,54,1.0,1
1765,12,1.0,0,0.7790564298629761,55,0.0,1
1766,12,1.0,0,0.8440555930137634,56,1.0,1
1767,12,1.0,0,0.7250571250915527,57,1.0,1
1768,12,1.0,0,0.8760551810264587,58,1.0,1
1769,12,1.0,0,0.8360556960105896,59,1.0,1
1770,12,1.0,0,0.6940575242042542,60,0.0,1
1771,12,1.0,0,0.7200571894645691,61,1.0,1
1772,12,0.0,0,2.3890938758850098,62,0.0,1
1773,12,1.0,0,0.7730565071105957,63,1.0,1
1774,12,1.0,0,0.9510542154312134,64,0.0,1
1775,12,1.0,0,1.1210520267486572,65,1.0,1
1776,12,1.0,0,0.6990574598312378,66,1.0,1
1777,12,1.0,0,1.1740514039993286,67,1.0,1
1778,12,1.0,0,2.756070137023926,68,1.0,1
1779,12,1.0,0,0.6450579166412354,69,0.0,1
1780,12,0.0,0,1.7770652770996094,70,1.0,1
1781,12,1.0,0,0.8810551166534424,71,1.0,1
1782,12,1.0,0,0.8890550136566162,72,1.0,1
1783,12,1.0,0,1.6520594358444214,73,1.0,1
1784,12,1.0,0,1.2660502195358276,74,1.0,1
1785,12,0.0,0,0.7360569834709167,75,0.0,1
1786,12,1.0,0,1.2440505027770996,76,1.0,1
1787,12,1.0,0,1.6390588283538818,77,0.0,1
1788,12,0.0,0,1.4810514450073242,78,0.0,1
1789,12,0.0,0,0.7730565071105957,79,0.0,1
1790,12,1.0,0,0.7910562753677368,80,1.0,1
1791,12,0.0,1,0.9190546274185181,1,0.0,1
1792,12,0.0,1,0.57005774974823,2,0.0,1
1793,12,1.0,1,1.0740526914596558,3,1.0,1
1794,12,0.0,1,1.206050992012024,4,0.0,1
1795,12,1.0,1,1.368048906326294,5,1.0,1
1796,12,1.0,1,0.8280557990074158,6,1.0,1
1797,12,1.0,1,0.6900575757026672,7,0.0,1
1798,12,1.0,1,0.5610576868057251,8,1.0,1
1799,12,1.0,1,1.5020524263381958,9,0.0,1
1800,12,1.0,1,0.7140572667121887,10,1.0,1
1801,12,1.0,1,1.0220533609390259,11,1.0,1
1802,12,1.0,1,1.3070496320724487,12,1.0,1
1803,12,0.0,1,0.6790577173233032,13,0.0,1
1804,12,1.0,1,0.702057421207428,14,1.0,1
1805,12,1.0,1,0.5840577483177185,15,1.0,1
1806,12,1.0,1,0.5080575942993164,16,1.0,1
1807,12,1.0,1,1.5220533609390259,17,1.0,1
1808,12,1.0,1,0.5580577254295349,18,1.0,1
1809,12,1.0,1,0.7260571122169495,19,0.0,1
1810,12,1.0,1,0.923054575920105,20,0.0,1
1811,12,1.0,1,0.9630540609359741,21,1.0,1
1812,12,1.0,1,1.429049015045166,22,1.0,1
1813,12,1.0,1,1.5790560245513916,23,1.0,1
1814,12,1.0,1,1.3770487308502197,24,1.0,1
1815,12,1.0,1,1.1940511465072632,25,1.0,1
1816,12,1.0,1,2.3630926609039307,26,0.0,1
1817,12,1.0,1,1.2260507345199585,27,0.0,1
1818,12,1.0,1,0.9840538501739502,28,1.0,1
1819,12,1.0,1,1.5250535011291504,29,1.0,1
1820,12,0.0,1,0.8780551552772522,30,1.0,1
1821,12,1.0,1,2.4440927505493164,31,0.0,1
1822,12,1.0,1,0.6140578389167786,32,1.0,1
1823,12,1.0,1,1.4850516319274902,33,0.0,1
1824,12,0.0,1,1.4590504169464111,34,0.0,1
1825,12,0.0,1,0.805056095123291,35,0.0,1
1826,12,0.0,1,1.2090508937835693,36,0.0,1
1827,12,1.0,1,0.6770577430725098,37,1.0,1
1828,12,1.0,1,1.0720527172088623,38,1.0,1
1829,12,0.0,1,2.3440918922424316,39,0.0,1
1830,12,1.0,1,0.9290544986724854,40,1.0,1
1831,12,1.0,1,0.8580554127693176,41,1.0,1
1832,12,0.0,1,1.1520516872406006,42,0.0,1
1833,12,1.0,1,0.5660577416419983,43,1.0,1
1834,12,1.0,1,1.4760512113571167,44,1.0,1
1835,12,1.0,1,1.943073034286499,45,1.0,1
1836,12,1.0,1,0.9200546741485596,46,1.0,1
1837,12,0.0,1,1.1560516357421875,47,0.0,1
1838,12,1.0,1,1.5870563983917236,48,1.0,1
1839,12,1.0,1,0.8030561208724976,49,1.0,1
1840,12,1.0,1,0.687057614326477,50,1.0,1
1841,12,1.0,1,1.0430530309677124,51,1.0,1
1842,12,1.0,1,1.3670488595962524,52,1.0,1
1843,12,1.0,1,0.8880550265312195,53,1.0,1
1844,12,1.0,1,0.7370569705963135,54,1.0,1
1845,12,1.0,1,0.970054030418396,55,1.0,1
1846,12,1.0,1,1.7400635480880737,56,1.0,1
1847,12,1.0,1,0.7530567646026611,57,1.0,1
1848,12,1.0,1,0.537057638168335,58,1.0,1
1849,12,1.0,1,1.181051254272461,59,1.0,1
1850,12,1.0,1,0.6990574598312378,60,1.0,1
1851,12,1.0,1,0.7670565843582153,61,1.0,1
1852,12,1.0,1,0.8470555543899536,62,1.0,1
1853,12,1.0,1,0.6420578956604004,63,1.0,1
1854,12,1.0,1,1.3080496788024902,64,1.0,1
1855,12,1.0,1,1.5010523796081543,65,1.0,1
1856,12,1.0,1,1.0160534381866455,66,1.0,1
1857,12,1.0,1,0.552057683467865,67,1.0,1
1858,12,1.0,1,0.8770551681518555,68,1.0,1
1859,12,1.0,1,1.2260507345199585,69,1.0,1
1860,12,1.0,1,0.6130578517913818,70,0.0,1
1861,12,1.0,1,1.2000510692596436,71,1.0,1
1862,12,1.0,1,0.8060560822486877,72,1.0,1
1863,12,1.0,1,1.8270676136016846,73,1.0,1
1864,12,1.0,1,0.944054365158081,74,0.0,1
1865,12,1.0,1,1.67106032371521,75,1.0,1
1866,12,1.0,1,1.8400682210922241,76,0.0,1
1867,12,1.0,1,1.6660600900650024,77,1.0,1
1868,12,0.0,1,1.041053056716919,78,0.0,1
1869,12,1.0,1,1.387048602104187,79,1.0,1
1870,12,1.0,1,1.3940485715866089,80,1.0,1
1871,12,0.0,2,0.948054313659668,1,0.0,1
1872,12,1.0,2,1.0510529279708862,2,0.0,1
1873,12,0.0,2,1.1160521507263184,3,1.0,1
1874,12,1.0,2,0.8190559148788452,4,1.0,1
1875,12,1.0,2,1.1390517950057983,5,0.0,1
1876,12,0.0,2,0.6270578503608704,6,0.0,1
1877,12,1.0,2,0.7270570993423462,7,0.0,1
1878,12,0.0,2,1.2080509662628174,8,0.0,1
1879,12,1.0,2,0.4850575625896454,9,1.0,1
1880,12,0.0,2,1.2600502967834473,10,0.0,1
1881,12,0.0,2,0.831055760383606,11,0.0,1
1882,12,1.0,2,0.9800539016723633,12,1.0,1
1883,12,1.0,2,1.3940485715866089,13,0.0,1
1884,12,1.0,2,0.8280557990074158,14,0.0,1
1885,12,0.0,2,1.7690649032592773,15,1.0,1
1886,12,0.0,2,0.8190559148788452,16,1.0,1
1887,12,1.0,2,1.0240533351898193,17,0.0,1
1888,12,0.0,2,2.0480780601501465,18,0.0,1
1889,12,0.0,2,1.1640515327453613,19,1.0,1
1890,12,1.0,2,0.761056661605835,20,0.0,1
1891,12,0.0,2,1.0640528202056885,21,1.0,1
1892,12,0.0,2,1.3000497817993164,22,0.0,1
1893,12,0.0,2,0.7510567903518677,23,1.0,1
1894,12,0.0,2,1.685060977935791,24,0.0,1
1895,12,0.0,2,0.6600579023361206,25,0.0,1
1896,12,0.0,2,1.3760488033294678,26,0.0,1
1897,12,1.0,2,0.6430578827857971,27,0.0,1
1898,12,1.0,2,0.8200559020042419,28,0.0,1
1899,12,0.0,2,1.0030535459518433,29,0.0,1
1900,12,0.0,2,1.6350586414337158,30,0.0,1
1901,12,1.0,2,2.5060882568359375,31,1.0,1
1902,12,1.0,2,0.9610540866851807,32,0.0,1
1903,12,1.0,2,1.364048957824707,33,0.0,1
1904,12,1.0,2,1.3220494985580444,34,0.0,1
1905,12,1.0,2,1.7770652770996094,35,1.0,1
1906,12,1.0,2,0.5610576868057251,36,0.0,1
1907,12,1.0,2,0.8430556058883667,37,1.0,1
1908,12,1.0,2,1.0680527687072754,38,0.0,1
1909,12,0.0,2,0.9560542106628418,39,1.0,1
1910,12,1.0,2,0.9290544986724854,40,1.0,1
1911,12,0.0,2,1.5120528936386108,41,1.0,1
1912,12,1.0,2,2.4160947799682617,42,0.0,1
1913,12,1.0,2,0.5150576233863831,43,0.0,1
1914,12,0.0,2,1.6340585947036743,44,1.0,1
1915,12,0.0,2,1.9280723333358765,45,1.0,1
1916,12,1.0,2,0.9180546998977661,46,1.0,1
1917,12,0.0,2,0.7110573053359985,47,0.0,1
1918,12,1.0,2,2.141082286834717,48,0.0,1
1919,12,0.0,2,0.9750539064407349,49,1.0,1
1920,12,1.0,2,1.675060510635376,50,1.0,1
1921,12,1.0,2,2.2930893898010254,51,0.0,1
1922,12,0.0,2,1.0860525369644165,52,0.0,1
1923,12,0.0,2,2.62507963180542,53,1.0,1
1924,12,0.0,2,1.0530529022216797,54,0.0,1
1925,12,1.0,2,1.6450591087341309,55,1.0,1
1926,12,0.0,2,1.3280494213104248,56,0.0,1
1927,12,1.0,2,0.8940549492835999,57,0.0,1
1928,12,1.0,2,2.577083110809326,58,1.0,1
1929,12,0.0,2,1.653059482574463,59,1.0,1
1930,12,0.0,2,1.081052541732788,60,0.0,1
1931,12,0.0,2,0.9790538549423218,61,0.0,1
1932,12,1.0,2,0.6260578632354736,62,0.0,1
1933,12,1.0,2,1.3580490350723267,63,1.0,1
1934,12,0.0,2,2.769069194793701,64,1.0,1
1935,12,1.0,2,1.1260520219802856,65,0.0,1
1936,12,0.0,2,0.9090547561645508,66,1.0,1
1937,12,0.0,2,1.0960524082183838,67,0.0,1
1938,12,1.0,2,0.8070560693740845,68,0.0,1
1939,12,0.0,2,1.41204833984375,69,0.0,1
1940,12,0.0,2,1.0260533094406128,70,0.0,1
1941,12,1.0,2,0.8930549621582031,71,1.0,1
1942,12,0.0,2,1.7610645294189453,72,1.0,1
1943,12,1.0,2,1.7770652770996094,73,0.0,1
1944,12,1.0,2,1.3190494775772095,74,0.0,1
1945,12,0.0,2,0.6940575242042542,75,0.0,1
1946,12,1.0,2,0.912054717540741,76,1.0,1
1947,12,1.0,2,0.9620541334152222,77,1.0,1
1948,12,1.0,2,1.089052438735962,78,1.0,1
1949,12,1.0,2,1.2050509452819824,79,0.0,1
1950,12,0.0,2,1.1180521249771118,80,0.0,1
1951,17,1.0,0,1.5365536212921143,1,1.0,1
1952,17,1.0,0,0.9165575504302979,2,1.0,1
1953,17,1.0,0,0.6875600218772888,3,0.0,1
1954,17,1.0,0,0.9415572881698608,4,1.0,1
1955,17,0.0,0,0.7015600800514221,5,0.0,1
1956,17,1.0,0,0.5555597543716431,6,1.0,1
1957,17,1.0,0,0.886557936668396,7,1.0,1
1958,17,1.0,0,0.9735568761825562,8,1.0,1
1959,17,1.0,0,0.8795580863952637,9,1.0,1
1960,17,1.0,0,0.7975591421127319,10,0.0,1
1961,17,0.0,0,1.3695517778396606,11,0.0,1
1962,17,1.0,0,0.8875579833984375,12,1.0,1
1963,17,1.0,0,0.8705581426620483,13,1.0,1
1964,17,1.0,0,0.7865592241287231,14,1.0,1
1965,17,1.0,0,0.7215601205825806,15,1.0,1
1966,17,1.0,0,1.0395560264587402,16,1.0,1
1967,17,1.0,0,0.5845597982406616,17,1.0,1
1968,17,1.0,0,1.2595531940460205,18,1.0,1
1969,17,1.0,0,0.5885598659515381,19,1.0,1
1970,17,1.0,0,0.9235575199127197,20,1.0,1
1971,17,1.0,0,0.7585595846176147,21,1.0,1
1972,17,0.0,0,0.7045600414276123,22,0.0,1
1973,17,1.0,0,1.073555588722229,23,1.0,1
1974,17,1.0,0,0.8555583953857422,24,1.0,1
1975,17,1.0,0,0.7325599193572998,25,1.0,1
1976,17,1.0,0,1.2235536575317383,26,1.0,1
1977,17,1.0,0,0.6015598773956299,27,1.0,1
1978,17,1.0,0,0.662559986114502,28,1.0,1
1979,17,1.0,0,1.0605556964874268,29,1.0,1
1980,17,1.0,0,0.9255574941635132,30,1.0,1
1981,17,0.0,0,0.9945566058158875,31,1.0,1
1982,17,1.0,0,0.6545599699020386,32,1.0,1
1983,17,1.0,0,0.6795600056648254,33,1.0,1
1984,17,0.0,0,0.9935566186904907,34,0.0,1
1985,17,1.0,0,0.8215588331222534,35,1.0,1
1986,17,0.0,0,1.117555022239685,36,1.0,1
1987,17,1.0,0,0.7305599451065063,37,1.0,1
1988,17,1.0,0,0.5505597591400146,38,1.0,1
1989,17,1.0,0,0.5555597543716431,39,1.0,1
1990,17,1.0,0,0.7525596618652344,40,1.0,1
1991,17,1.0,1,1.0285561084747314,1,0.0,1
1992,17,0.0,1,0.7505596876144409,2,1.0,1
1993,17,0.0,1,0.8665581941604614,3,1.0,1
1994,17,0.0,1,1.3005526065826416,4,1.0,1
1995,17,0.0,1,1.139554738998413,5,0.0,1
1996,17,1.0,1,1.5465540885925293,6,1.0,1
1997,17,1.0,1,0.6785600185394287,7,1.0,1
1998,17,1.0,1,1.1765542030334473,8,0.0,1
1999,17,1.0,1,0.9605569839477539,9,1.0,1
2000,17,0.0,1,1.279552936553955,10,0.0,1
2001,17,0.0,1,1.1785542964935303,11,0.0,1
2002,17,1.0,1,0.6305599212646484,12,0.0,1
2003,17,1.0,1,0.7035600543022156,13,0.0,1
2004,17,0.0,1,0.9805567860603333,14,0.0,1
2005,17,0.0,1,1.1265549659729004,15,0.0,1
2006,17,0.0,1,0.8075590133666992,16,0.0,1
2007,17,1.0,1,0.6225599050521851,17,1.0,1
2008,17,1.0,1,1.5145525932312012,18,0.0,1
2009,17,0.0,1,0.8405585289001465,19,0.0,1
2010,17,0.0,1,0.5595597624778748,20,0.0,1
2011,17,1.0,1,0.955557107925415,21,1.0,1
2012,17,1.0,1,0.7085601091384888,22,0.0,1
2013,17,0.0,1,0.8655582666397095,23,0.0,1
2014,17,1.0,1,0.8305586576461792,24,0.0,1
2015,17,0.0,1,0.8135589361190796,25,1.0,1
2016,17,1.0,1,0.6935600638389587,26,1.0,1
2017,17,1.0,1,0.7425597906112671,27,1.0,1
2018,17,1.0,1,0.7335599660873413,28,1.0,1
2019,17,0.0,1,0.8175588846206665,29,1.0,1
2020,17,1.0,1,1.0655556917190552,30,1.0,1
2021,17,0.0,1,1.3375521898269653,31,0.0,1
2022,17,1.0,1,0.6325598955154419,32,1.0,1
2023,17,1.0,1,0.7775593996047974,33,0.0,1
2024,17,0.0,1,1.0155563354492188,34,1.0,1
2025,17,0.0,1,0.9845567345619202,35,0.0,1
2026,17,1.0,1,0.7475597858428955,36,0.0,1
2027,17,0.0,1,1.051555871963501,37,0.0,1
2028,17,1.0,1,0.6655600070953369,38,0.0,1
2029,17,1.0,1,0.6505599617958069,39,0.0,1
2030,17,1.0,1,1.6655595302581787,40,1.0,1
2031,17,0.0,2,0.6635599732398987,1,0.0,1
2032,17,0.0,2,1.003556489944458,2,0.0,1
2033,17,1.0,2,1.5385537147521973,3,0.0,1
2034,17,0.0,2,0.9325573444366455,4,0.0,1
2035,17,0.0,2,0.5825598239898682,5,0.0,1
2036,17,0.0,2,1.054555892944336,6,0.0,1
2037,17,1.0,2,0.8215588331222534,7,1.0,1
2038,17,1.0,2,1.0435559749603271,8,0.0,1
2039,17,1.0,2,0.8225587606430054,9,0.0,1
2040,17,0.0,2,0.6965600252151489,10,0.0,1
2041,17,1.0,2,0.6735600233078003,11,1.0,1
2042,17,0.0,2,0.9755568504333496,12,1.0,1
2043,17,1.0,2,1.2915527820587158,13,0.0,1
2044,17,1.0,2,0.9865567088127136,14,1.0,1
2045,17,0.0,2,0.9905566573143005,15,1.0,1
2046,17,0.0,2,1.3835515975952148,16,0.0,1
2047,17,1.0,2,0.6605600118637085,17,1.0,1
2048,17,0.0,2,0.9505571126937866,18,0.0,1
2049,17,1.0,2,0.7435598373413086,19,0.0,1
2050,17,0.0,2,1.4285509586334229,20,1.0,1
2051,17,0.0,2,1.235553503036499,21,1.0,1
2052,17,0.0,2,0.9155576229095459,22,0.0,1
2053,17,1.0,2,1.2995526790618896,23,1.0,1
2054,17,1.0,2,0.6845600605010986,24,0.0,1
2055,17,1.0,2,0.9065576791763306,25,1.0,1
2056,17,1.0,2,0.6415599584579468,26,1.0,1
2057,17,1.0,2,1.234553575515747,27,1.0,1
2058,17,1.0,2,0.9175575971603394,28,1.0,1
2059,17,0.0,2,1.47355055809021,29,0.0,1
2060,17,1.0,2,0.8875579833984375,30,1.0,1
2061,17,1.0,2,1.476550817489624,31,1.0,1
2062,17,1.0,2,0.7215601205825806,32,0.0,1
2063,17,1.0,2,1.1385548114776611,33,1.0,1
2064,17,1.0,2,0.908557653427124,34,1.0,1
2065,17,1.0,2,0.889557957649231,35,1.0,1
2066,17,1.0,2,1.0845553874969482,36,0.0,1
2067,17,1.0,2,0.5735598206520081,37,0.0,1
2068,17,1.0,2,0.6755599975585938,38,1.0,1
2069,17,0.0,2,1.3375521898269653,39,0.0,1
2070,17,1.0,2,1.0155563354492188,40,1.0,1
2071,18,1.0,0,0.8103379011154175,1,1.0,1
2072,18,0.0,0,4.016264915466309,2,0.0,1
2073,18,1.0,0,0.7663384675979614,3,1.0,1
2074,18,1.0,0,1.459329605102539,4,0.0,1
2075,18,1.0,0,0.5993385910987854,5,1.0,1
2076,18,1.0,0,0.7573386430740356,6,1.0,1
2077,18,1.0,0,0.7433388233184814,7,1.0,1
2078,18,1.0,0,1.000335454940796,8,1.0,1
2079,18,1.0,0,1.3073315620422363,9,1.0,1
2080,18,1.0,0,2.324368476867676,10,1.0,1
2081,18,1.0,0,1.7793428897857666,11,1.0,1
2082,18,1.0,0,1.9323500394821167,12,1.0,1
2083,18,1.0,0,0.6153386235237122,13,1.0,1
2084,18,1.0,0,1.0803344249725342,14,0.0,1
2085,18,1.0,0,1.389330506324768,15,1.0,1
2086,18,1.0,0,1.316331386566162,16,1.0,1
2087,18,1.0,0,1.8783475160598755,17,1.0,1
2088,18,1.0,0,0.8993368148803711,18,1.0,1
2089,18,0.0,0,1.1493335962295532,19,0.0,1
2090,18,1.0,0,1.5593326091766357,20,1.0,1
2091,18,1.0,0,0.6493387222290039,21,1.0,1
2092,18,1.0,0,1.74834144115448,22,0.0,1
2093,18,1.0,0,1.042335033416748,23,0.0,1
2094,18,1.0,0,0.9193365573883057,24,1.0,1
2095,18,1.0,0,0.6563386917114258,25,1.0,1
2096,18,1.0,0,1.0623347759246826,26,1.0,1
2097,18,1.0,0,1.8393456935882568,27,1.0,1
2098,18,1.0,0,0.8393375873565674,28,0.0,1
2099,18,1.0,0,3.371311902999878,29,1.0,1
2100,18,0.0,0,1.3513309955596924,30,0.0,1
2101,18,1.0,0,0.5783385634422302,31,0.0,1
2102,18,0.0,0,0.7773383855819702,32,0.0,1
2103,18,1.0,0,0.9023367166519165,33,0.0,1
2104,18,1.0,0,1.20533287525177,34,0.0,1
2105,18,1.0,0,2.4843759536743164,35,1.0,1
2106,18,1.0,0,0.7953381538391113,36,1.0,1
2107,18,1.0,0,0.7113388180732727,37,1.0,1
2108,18,1.0,0,0.8773370981216431,38,0.0,1
2109,18,0.0,0,1.4653295278549194,39,0.0,1
2110,18,1.0,0,0.5903385877609253,40,1.0,1
2111,18,1.0,1,1.1443336009979248,1,1.0,1
2112,18,1.0,1,1.649336814880371,2,0.0,1
2113,18,1.0,1,0.7523386478424072,3,1.0,1
2114,18,1.0,1,1.5813336372375488,4,1.0,1
2115,18,1.0,1,0.760338544845581,5,1.0,1
2116,18,1.0,1,0.9493361711502075,6,0.0,1
2117,18,1.0,1,0.7753384113311768,7,0.0,1
2118,18,0.0,1,1.2333325147628784,8,1.0,1
2119,18,1.0,1,1.8743473291397095,9,0.0,1
2120,18,0.0,1,1.1673333644866943,10,0.0,1
2121,18,1.0,1,1.456329584121704,11,0.0,1
2122,18,0.0,1,1.226332664489746,12,1.0,1
2123,18,0.0,1,0.8993368148803711,13,1.0,1
2124,18,0.0,1,1.092334270477295,14,0.0,1
2125,18,1.0,1,1.0833344459533691,15,1.0,1
2126,18,1.0,1,0.695338785648346,16,0.0,1
2127,18,1.0,1,1.8263450860977173,17,1.0,1
2128,18,1.0,1,1.3283312320709229,18,1.0,1
2129,18,1.0,1,1.5293312072753906,19,1.0,1
2130,18,0.0,1,1.2563321590423584,20,0.0,1
2131,18,1.0,1,1.649336814880371,21,0.0,1
2132,18,1.0,1,1.6543370485305786,22,0.0,1
2133,18,1.0,1,1.6733379364013672,23,0.0,1
2134,18,1.0,1,2.2353641986846924,24,1.0,1
2135,18,0.0,1,0.7023388147354126,25,0.0,1
2136,18,1.0,1,0.6903387904167175,26,0.0,1
2137,18,0.0,1,1.2083327770233154,27,0.0,1
2138,18,0.0,1,0.8583372831344604,28,0.0,1
2139,18,0.0,1,2.126358985900879,29,0.0,1
2140,18,0.0,1,1.4993298053741455,30,0.0,1
2141,18,1.0,1,0.8073379993438721,31,1.0,1
2142,18,1.0,1,0.8613373041152954,32,1.0,1
2143,18,1.0,1,1.0543348789215088,33,1.0,1
2144,18,0.0,1,0.9403362274169922,34,0.0,1
2145,18,1.0,1,1.9113490581512451,35,0.0,1
2146,18,0.0,1,1.5263310670852661,36,0.0,1
2147,18,0.0,1,0.6363386511802673,37,1.0,1
2148,18,1.0,1,0.8223377466201782,38,0.0,1
2149,18,0.0,1,0.9383362531661987,39,1.0,1
2150,18,1.0,1,0.9783357381820679,40,1.0,1
2151,18,0.0,2,1.3443310260772705,1,0.0,1
2152,18,1.0,2,1.6913387775421143,2,1.0,1
2153,18,0.0,2,2.177361488342285,3,1.0,1
2154,18,0.0,2,0.9123365879058838,4,0.0,1
2155,18,1.0,2,1.0493348836898804,5,0.0,1
2156,18,1.0,2,1.2633321285247803,6,0.0,1
2157,18,0.0,2,1.371330738067627,7,0.0,1
2158,18,0.0,2,0.9383362531661987,8,1.0,1
2159,18,1.0,2,1.8243449926376343,9,0.0,1
2160,18,1.0,2,0.7003387808799744,10,0.0,1
2161,18,0.0,2,0.8033380508422852,11,0.0,1
2162,18,1.0,2,1.4533296823501587,12,0.0,1
2163,18,1.0,2,1.2663321495056152,13,0.0,1
2164,18,1.0,2,0.7353388667106628,14,1.0,1
2165,18,1.0,2,0.5923385620117188,15,0.0,1
2166,18,1.0,2,0.7833383083343506,16,0.0,1
2167,18,1.0,2,2.2473647594451904,17,1.0,1
2168,18,1.0,2,0.6023386120796204,18,1.0,1
2169,18,0.0,2,1.9303499460220337,19,0.0,1
2170,18,1.0,2,0.8993368148803711,20,1.0,1
2171,18,0.0,2,1.0043354034423828,21,1.0,1
2172,18,1.0,2,0.6423386931419373,22,0.0,1
2173,18,1.0,2,1.2863318920135498,23,0.0,1
2174,18,0.0,2,1.087334394454956,24,1.0,1
2175,18,0.0,2,1.8123444318771362,25,0.0,1
2176,18,1.0,2,1.1263339519500732,26,1.0,1
2177,18,1.0,2,3.4043095111846924,27,1.0,1
2178,18,1.0,2,1.3993303775787354,28,0.0,1
2179,18,1.0,2,0.5853385925292969,29,1.0,1
2180,18,1.0,2,0.8773370981216431,30,0.0,1
2181,18,0.0,2,1.232332468032837,31,0.0,1
2182,18,1.0,2,0.7033388018608093,32,1.0,1
2183,18,0.0,2,0.6663387417793274,33,1.0,1
2184,18,0.0,2,2.688361406326294,34,0.0,1
2185,18,0.0,2,2.3073675632476807,35,1.0,1
2186,18,0.0,2,1.617335319519043,36,0.0,1
2187,18,1.0,2,0.9223364591598511,37,0.0,1
2188,18,1.0,2,0.704338788986206,38,0.0,1
2189,18,1.0,2,0.8503373861312866,39,1.0,1
2190,18,1.0,2,1.044334888458252,40,0.0,1
2191,19,1.0,0,1.5628992319107056,1,1.0,1
2192,19,1.0,0,0.5929020643234253,2,1.0,1
2193,19,1.0,0,1.9669181108474731,3,1.0,1
2194,19,0.0,0,1.6819047927856445,4,0.0,1
2195,19,1.0,0,1.1268963813781738,5,1.0,1
2196,19,1.0,0,0.9278990030288696,6,1.0,1
2197,19,0.0,0,1.0338976383209229,7,0.0,1
2198,19,0.0,0,2.790912628173828,8,1.0,1
2199,19,0.0,0,0.7339014410972595,9,0.0,1
2200,19,1.0,0,0.6109021306037903,10,1.0,1
2201,19,1.0,0,1.8329118490219116,11,1.0,1
2202,19,1.0,0,0.8439000248908997,12,0.0,1
2203,19,1.0,0,1.5849002599716187,13,1.0,1
2204,19,1.0,0,3.8038392066955566,14,1.0,1
2205,19,1.0,0,0.6429021954536438,15,0.0,1
2206,19,1.0,0,1.1378962993621826,16,1.0,1
2207,19,1.0,0,1.0648971796035767,17,1.0,1
2208,19,1.0,0,4.051821231842041,18,1.0,1
2209,19,0.0,0,0.8209003210067749,19,0.0,1
2210,19,1.0,0,3.236880302429199,20,1.0,1
2211,19,0.0,0,2.027920961380005,21,1.0,1
2212,19,0.0,0,1.3998929262161255,22,0.0,1
2213,19,0.0,0,1.700905680656433,23,0.0,1
2214,19,1.0,0,2.7239174842834473,24,1.0,1
2215,19,1.0,0,0.6859020590782166,25,1.0,1
2216,19,1.0,0,0.6839020848274231,26,0.0,1
2217,19,0.0,0,1.1638959646224976,27,0.0,1
2218,19,1.0,0,0.6139020919799805,28,1.0,1
2219,19,1.0,0,1.165895938873291,29,0.0,1
2220,19,0.0,0,0.8828995227813721,30,0.0,1
2221,19,1.0,0,0.8508999347686768,31,1.0,1
2222,19,1.0,0,2.059922456741333,32,1.0,1
2223,19,0.0,0,3.1868839263916016,33,1.0,1
2224,19,1.0,0,0.7149016857147217,34,1.0,1
2225,19,1.0,0,0.8458999991416931,35,1.0,1
2226,19,1.0,0,1.184895634651184,36,1.0,1
2227,19,1.0,0,2.311934232711792,37,1.0,1
2228,19,0.0,0,1.7409075498580933,38,0.0,1
2229,19,0.0,0,1.4788953065872192,39,0.0,1
2230,19,1.0,0,1.2528947591781616,40,1.0,1
2231,19,0.0,0,0.9728983640670776,41,0.0,1
2232,19,1.0,0,1.2188951969146729,42,1.0,1
2233,19,0.0,0,0.7869007587432861,43,0.0,1
2234,19,1.0,0,1.69890558719635,44,1.0,1
2235,19,0.0,0,2.2339305877685547,45,0.0,1
2236,19,0.0,0,1.099896788597107,46,1.0,1
2237,19,0.0,0,1.8849142789840698,47,0.0,1
2238,19,0.0,0,1.799910306930542,48,0.0,1
2239,19,0.0,0,3.007896900177002,49,0.0,1
2240,19,1.0,0,0.6869020462036133,50,1.0,1
2241,19,1.0,0,3.5968542098999023,51,0.0,1
2242,19,1.0,0,0.8439000248908997,52,1.0,1
2243,19,1.0,0,1.1028966903686523,53,0.0,1
2244,19,1.0,0,0.5369019508361816,54,1.0,1
2245,19,1.0,0,0.5369019508361816,55,1.0,1
2246,19,1.0,0,0.720901608467102,56,1.0,1
2247,19,0.0,0,2.1639273166656494,57,0.0,1
2248,19,0.0,0,1.188895583152771,58,1.0,1
2249,19,1.0,0,1.6819047927856445,59,1.0,1
2250,19,1.0,0,0.5789020657539368,60,0.0,1
2251,19,0.0,0,1.2088953256607056,61,0.0,1
2252,19,1.0,0,0.5459020137786865,62,1.0,1
2253,19,1.0,0,1.0098979473114014,63,1.0,1
2254,19,1.0,0,2.5429306030273438,64,1.0,1
2255,19,1.0,0,0.8798995614051819,65,1.0,1
2256,19,1.0,0,2.9788990020751953,66,1.0,1
2257,19,1.0,0,0.6469022035598755,67,1.0,1
2258,19,0.0,0,1.4508939981460571,68,0.0,1
2259,19,1.0,0,1.0598973035812378,69,0.0,1
2260,19,0.0,0,1.0788969993591309,70,0.0,1
2261,19,1.0,0,0.495901882648468,71,1.0,1
2262,19,1.0,0,2.4889345169067383,72,1.0,1
2263,19,1.0,0,1.3928929567337036,73,1.0,1
2264,19,1.0,0,1.1058967113494873,74,1.0,1
2265,19,1.0,0,0.8019005656242371,75,1.0,1
2266,19,1.0,0,0.7959006428718567,76,1.0,1
2267,19,1.0,0,1.5138969421386719,77,0.0,1
2268,19,1.0,0,1.0058979988098145,78,1.0,1
2269,19,1.0,0,1.0548973083496094,79,1.0,1
2270,19,1.0,0,1.4698948860168457,80,1.0,1
2271,19,1.0,1,1.4778952598571777,1,1.0,1
2272,19,1.0,1,1.3328937292099,2,1.0,1
2273,19,1.0,1,0.6559022068977356,3,1.0,1
2274,19,1.0,1,2.033921241760254,4,1.0,1
2275,19,1.0,1,1.3228938579559326,5,0.0,1
2276,19,1.0,1,0.5019018650054932,6,1.0,1
2277,19,1.0,1,1.676904559135437,7,1.0,1
2278,19,1.0,1,1.3198939561843872,8,1.0,1
2279,19,0.0,1,1.3368936777114868,9,1.0,1
2280,19,1.0,1,0.8109004497528076,10,1.0,1
2281,19,0.0,1,1.5788999795913696,11,0.0,1
2282,19,0.0,1,0.9708983898162842,12,1.0,1
2283,19,1.0,1,1.1458961963653564,13,1.0,1
2284,19,1.0,1,1.4838955402374268,14,0.0,1
2285,19,0.0,1,2.450937271118164,15,0.0,1
2286,19,1.0,1,1.2898943424224854,16,1.0,1
2287,19,0.0,1,3.0868911743164062,17,0.0,1
2288,19,1.0,1,0.6919019818305969,18,1.0,1
2289,19,1.0,1,1.1368962526321411,19,0.0,1
2290,19,1.0,1,1.5188971757888794,20,1.0,1
2291,19,0.0,1,0.864899754524231,21,1.0,1
2292,19,1.0,1,1.3778932094573975,22,0.0,1
2293,19,0.0,1,0.8488999605178833,23,1.0,1
2294,19,0.0,1,2.838909149169922,24,0.0,1
2295,19,0.0,1,1.2928942441940308,25,0.0,1
2296,19,1.0,1,1.236894965171814,26,1.0,1
2297,19,1.0,1,1.279894471168518,27,0.0,1
2298,19,0.0,1,1.5068966150283813,28,0.0,1
2299,19,0.0,1,2.062922477722168,29,0.0,1
2300,19,1.0,1,0.5179018974304199,30,1.0,1
2301,19,1.0,1,1.7329071760177612,31,1.0,1
2302,19,0.0,1,0.757901132106781,32,0.0,1
2303,19,1.0,1,2.6759209632873535,33,1.0,1
2304,19,1.0,1,2.1309256553649902,34,1.0,1
2305,19,0.0,1,2.120925188064575,35,1.0,1
2306,19,1.0,1,0.6839020848274231,36,1.0,1
2307,19,0.0,1,0.8199003338813782,37,0.0,1
2308,19,1.0,1,1.007897973060608,38,0.0,1
2309,19,1.0,1,1.4648946523666382,39,1.0,1
2310,19,1.0,1,1.4298930168151855,40,1.0,1
2311,19,0.0,1,1.7209066152572632,41,0.0,1
2312,19,1.0,1,2.2449309825897217,42,0.0,1
2313,19,1.0,1,2.2469310760498047,43,1.0,1
2314,19,1.0,1,0.9038992524147034,44,0.0,1
2315,19,0.0,1,1.091896891593933,45,1.0,1
2316,19,0.0,1,1.664903998374939,46,0.0,1
2317,19,1.0,1,1.9399168491363525,47,1.0,1
2318,19,1.0,1,0.7409013509750366,48,1.0,1
2319,19,0.0,1,1.672904372215271,49,0.0,1
2320,19,1.0,1,1.0568972826004028,50,1.0,1
2321,19,1.0,1,2.624924659729004,51,0.0,1
2322,19,0.0,1,3.752842903137207,52,1.0,1
2323,19,1.0,1,0.9388988018035889,53,0.0,1
2324,19,0.0,1,2.5709285736083984,54,1.0,1
2325,19,0.0,1,0.7029018402099609,55,0.0,1
2326,19,1.0,1,0.5979020595550537,56,1.0,1
2327,19,1.0,1,0.7039018273353577,57,0.0,1
2328,19,1.0,1,0.5519019961357117,58,0.0,1
2329,19,1.0,1,0.9158990979194641,59,1.0,1
2330,19,0.0,1,2.1459264755249023,60,1.0,1
2331,19,1.0,1,0.6289021372795105,61,0.0,1
2332,19,1.0,1,1.1798957586288452,62,1.0,1
2333,19,1.0,1,0.54790198802948,63,1.0,1
2334,19,0.0,1,2.317934513092041,64,0.0,1
2335,19,1.0,1,1.2748944759368896,65,1.0,1
2336,19,0.0,1,1.118896484375,66,1.0,1
2337,19,1.0,1,0.6279021501541138,67,1.0,1
2338,19,1.0,1,0.9278990030288696,68,0.0,1
2339,19,1.0,1,1.9839189052581787,69,1.0,1
2340,19,0.0,1,1.2858943939208984,70,0.0,1
2341,19,0.0,1,2.1909284591674805,71,0.0,1
2342,19,1.0,1,0.5309019684791565,72,1.0,1
2343,19,0.0,1,2.517932415008545,73,0.0,1
2344,19,0.0,1,2.902904510498047,74,1.0,1
2345,19,1.0,1,0.6819021105766296,75,1.0,1
2346,19,1.0,1,0.8988993167877197,76,0.0,1
2347,19,0.0,1,1.7449077367782593,77,1.0,1
2348,19,1.0,1,0.8778995871543884,78,0.0,1
2349,19,0.0,1,1.8549128770828247,79,0.0,1
2350,19,1.0,1,0.9748983383178711,80,1.0,1
2351,19,1.0,2,1.279894471168518,1,0.0,1
2352,19,1.0,2,1.7909098863601685,2,1.0,1
2353,19,0.0,2,3.452864646911621,3,1.0,1
2354,19,0.0,2,2.793912410736084,4,1.0,1
2355,19,0.0,2,0.7849007844924927,5,1.0,1
2356,19,1.0,2,0.8089004755020142,6,1.0,1
2357,19,1.0,2,0.7219015955924988,7,1.0,1
2358,19,1.0,2,0.9638985395431519,8,0.0,1
2359,19,1.0,2,1.7649086713790894,9,1.0,1
2360,19,1.0,2,1.1858956813812256,10,0.0,1
2361,19,1.0,2,1.7489079236984253,11,1.0,1
2362,19,1.0,2,1.3218939304351807,12,0.0,1
2363,19,1.0,2,1.030897617340088,13,1.0,1
2364,19,0.0,2,0.7749009132385254,14,1.0,1
2365,19,1.0,2,0.9268989562988281,15,1.0,1
2366,19,0.0,2,2.477935314178467,16,0.0,1
2367,19,0.0,2,0.7449012994766235,17,1.0,1
2368,19,0.0,2,1.5038964748382568,18,1.0,1
2369,19,0.0,2,0.9858982563018799,19,0.0,1
2370,19,1.0,2,0.8678997159004211,20,1.0,1
2371,19,1.0,2,3.070892333984375,21,1.0,1
2372,19,1.0,2,0.8518999218940735,22,1.0,1
2373,19,0.0,2,1.3238939046859741,23,1.0,1
2374,19,0.0,2,2.306933879852295,24,0.0,1
2375,19,1.0,2,2.643923282623291,25,1.0,1
2376,19,1.0,2,0.7939006686210632,26,0.0,1
2377,19,1.0,2,0.7759009003639221,27,1.0,1
2378,19,1.0,2,0.6199021339416504,28,1.0,1
2379,19,0.0,2,1.4068927764892578,29,0.0,1
2380,19,1.0,2,1.948917269706726,30,0.0,1
2381,19,1.0,2,1.8449124097824097,31,0.0,1
2382,19,0.0,2,1.3878930807113647,32,1.0,1
2383,19,1.0,2,1.5348979234695435,33,1.0,1
2384,19,0.0,2,1.4648946523666382,34,0.0,1
2385,19,1.0,2,0.9238990545272827,35,0.0,1
2386,19,1.0,2,0.6729022264480591,36,1.0,1
2387,19,1.0,2,1.7789093255996704,37,0.0,1
2388,19,1.0,2,0.8678997159004211,38,1.0,1
2389,19,1.0,2,1.3678933382034302,39,1.0,1
2390,19,0.0,2,2.2509312629699707,40,0.0,1
2391,19,1.0,2,0.6029021143913269,41,1.0,1
2392,19,1.0,2,4.599781513214111,42,0.0,1
2393,19,1.0,2,1.1968954801559448,43,1.0,1
2394,19,0.0,2,0.8528999090194702,44,0.0,1
2395,19,0.0,2,0.8229002952575684,45,1.0,1
2396,19,1.0,2,1.2238951921463013,46,0.0,1
2397,19,1.0,2,1.3348937034606934,47,0.0,1
2398,19,0.0,2,1.1728957891464233,48,0.0,1
2399,19,1.0,2,1.0368975400924683,49,1.0,1
2400,19,1.0,2,0.9638985395431519,50,1.0,1
2401,19,1.0,2,0.6529021859169006,51,1.0,1
2402,19,1.0,2,1.2648946046829224,52,1.0,1
2403,19,0.0,2,0.9258990287780762,53,0.0,1
2404,19,1.0,2,1.346893548965454,54,0.0,1
2405,19,1.0,2,1.6449030637741089,55,1.0,1
2406,19,1.0,2,2.087923765182495,56,1.0,1
2407,19,0.0,2,0.7999005913734436,57,0.0,1
2408,19,1.0,2,0.8918994069099426,58,0.0,1
2409,19,0.0,2,1.827911615371704,59,0.0,1
2410,19,1.0,2,0.6799021363258362,60,0.0,1
2411,19,1.0,2,0.5039018988609314,61,0.0,1
2412,19,0.0,2,1.0868968963623047,62,0.0,1
2413,19,0.0,2,1.4608944654464722,63,1.0,1
2414,19,1.0,2,0.8858994841575623,64,0.0,1
2415,19,1.0,2,0.9718984365463257,65,1.0,1
2416,19,1.0,2,1.3308937549591064,66,1.0,1
2417,19,1.0,2,0.8119004368782043,67,0.0,1
2418,19,1.0,2,0.9678984880447388,68,1.0,1
2419,19,1.0,2,0.5529019832611084,69,1.0,1
2420,19,0.0,2,1.8089107275009155,70,0.0,1
2421,19,1.0,2,0.6809021234512329,71,0.0,1
2422,19,1.0,2,2.4119389057159424,72,1.0,1
2423,19,0.0,2,1.8599131107330322,73,1.0,1
2424,19,1.0,2,1.3778932094573975,74,0.0,1
2425,19,1.0,2,1.8879144191741943,75,0.0,1
2426,19,0.0,2,1.3558934926986694,76,0.0,1
2427,19,1.0,2,0.7779008746147156,77,1.0,1
2428,19,1.0,2,0.9248989820480347,78,0.0,1
2429,19,1.0,2,1.440893530845642,79,1.0,1
2430,19,1.0,2,1.371893286705017,80,0.0,1
2431,20,0.0,0,1.8647373914718628,1,1.0,1
2432,20,0.0,0,0.8267253041267395,2,0.0,1
2433,20,1.0,0,0.7457263469696045,3,1.0,1
2434,20,1.0,0,0.6967269778251648,4,1.0,1
2435,20,1.0,0,0.8127254843711853,5,1.0,1
2436,20,0.0,0,1.0767221450805664,6,0.0,1
2437,20,0.0,0,1.019722819328308,7,0.0,1
2438,20,0.0,0,0.8087255358695984,8,0.0,1
2439,20,0.0,0,1.4877197742462158,9,1.0,1
2440,20,0.0,0,1.0657222270965576,10,0.0,1
2441,20,1.0,0,1.0067230463027954,11,1.0,1
2442,20,1.0,0,0.5867269039154053,12,1.0,1
