,subj_idx,response,split_by,rt,trial,feedback,samp,type
8480,0,0.0,0,0.99,1,1.0,0,observed
8481,0,1.0,1,0.904,1,0.0,0,observed
8482,0,0.0,0,1.306,2,1.0,0,observed
8483,0,1.0,1,0.523,2,0.0,0,observed
8484,0,0.0,0,1.565,3,0.0,0,observed
8485,0,1.0,1,0.875,3,0.0,0,observed
8486,0,1.0,0,1.302,4,0.0,0,observed
8487,0,0.0,1,0.937,4,0.0,0,observed
8488,0,1.0,0,1.625,5,1.0,0,observed
8489,0,0.0,1,1.001,5,1.0,0,observed
8490,0,1.0,0,0.872,6,1.0,0,observed
8491,0,0.0,1,1.376,6,0.0,0,observed
8492,0,0.0,0,1.239,7,1.0,0,observed
8493,0,1.0,1,0.959,7,1.0,0,observed
8494,0,0.0,0,0.838,8,1.0,0,observed
8495,0,0.0,1,0.506,8,0.0,0,observed
8496,0,1.0,0,1.831,9,0.0,0,observed
8497,0,0.0,1,0.748,9,0.0,0,observed
8498,0,1.0,0,0.461,10,1.0,0,observed
8499,0,0.0,1,1.438,10,0.0,0,observed
8500,0,1.0,0,0.497,11,0.0,0,observed
8501,0,0.0,1,1.815,11,1.0,0,observed
8502,0,0.0,0,2.211,12,1.0,0,observed
8503,0,1.0,1,1.352,12,0.0,0,observed
8504,0,1.0,0,0.371,13,0.0,0,observed
8505,0,0.0,1,0.31,13,0.0,0,observed
8506,0,1.0,0,0.408,14,1.0,0,observed
8507,0,0.0,1,0.58,14,0.0,0,observed
8508,0,1.0,0,0.534,15,1.0,0,observed
8509,0,1.0,1,0.647,15,0.0,0,observed
8510,0,1.0,0,0.533,16,1.0,0,observed
8511,0,1.0,1,0.39,16,0.0,0,observed
8512,0,0.0,0,0.515,17,0.0,0,observed
8513,0,1.0,1,0.722,17,0.0,0,observed
8514,0,1.0,0,0.498,18,0.0,0,observed
8515,0,0.0,1,0.411,18,0.0,0,observed
8516,0,0.0,0,0.633,19,1.0,0,observed
8517,0,1.0,1,0.459,19,0.0,0,observed
8518,0,0.0,0,0.55,20,1.0,0,observed
8519,0,0.0,1,0.669,20,0.0,0,observed
8520,0,1.0,0,0.824,21,0.0,0,observed
8521,0,1.0,1,0.557,21,0.0,0,observed
8522,0,1.0,0,1.158,22,0.0,0,observed
8523,0,0.0,1,0.49,22,1.0,0,observed
8524,0,1.0,0,1.74,23,0.0,0,observed
8525,0,0.0,1,0.548,23,1.0,0,observed
8526,0,1.0,0,0.544,24,1.0,0,observed
8527,0,0.0,1,1.043,24,1.0,0,observed
8528,0,1.0,0,0.414,25,1.0,0,observed
8529,0,0.0,1,0.468,25,1.0,0,observed
8530,0,1.0,0,0.387,26,1.0,0,observed
8531,0,0.0,1,0.445,26,0.0,0,observed
8532,0,1.0,0,0.47,27,0.0,0,observed
8533,0,1.0,1,0.392,27,0.0,0,observed
8534,0,0.0,0,0.995,28,1.0,0,observed
8535,0,0.0,1,0.582,28,1.0,0,observed
8536,0,0.0,0,0.613,29,1.0,0,observed
8537,0,0.0,1,0.354,29,1.0,0,observed
8538,0,1.0,0,1.518,30,1.0,0,observed
8539,0,0.0,1,0.502,30,1.0,0,observed
8540,0,1.0,0,0.586,31,0.0,0,observed
8541,0,0.0,1,0.633,31,1.0,0,observed
8542,0,1.0,0,1.536,32,0.0,0,observed
8543,0,1.0,1,0.957,32,0.0,0,observed
8544,0,1.0,0,0.428,33,0.0,0,observed
8545,0,1.0,1,0.397,33,1.0,0,observed
8546,0,1.0,0,0.498,34,0.0,0,observed
8547,0,0.0,1,0.484,34,1.0,0,observed
8548,0,0.0,0,1.026,35,1.0,0,observed
8549,0,0.0,1,0.47,35,1.0,0,observed
8550,0,0.0,0,0.52,36,1.0,0,observed
8551,0,0.0,1,0.563,36,1.0,0,observed
8552,0,0.0,0,0.752,37,1.0,0,observed
8553,0,0.0,1,0.401,37,1.0,0,observed
8554,0,0.0,0,0.92,38,0.0,0,observed
8555,0,0.0,1,0.48,38,1.0,0,observed
8556,0,1.0,0,0.793,39,0.0,0,observed
8557,0,1.0,1,0.44,39,0.0,0,observed
8558,0,1.0,0,0.758,40,0.0,0,observed
8559,0,1.0,1,0.586,40,0.0,0,observed
8560,0,0.0,0,0.571,41,1.0,0,observed
8561,0,0.0,1,0.547,41,0.0,0,observed
8562,0,0.0,0,0.372,42,0.0,0,observed
8563,0,0.0,1,0.778,42,0.0,0,observed
8564,0,0.0,0,0.412,43,0.0,0,observed
8565,0,1.0,1,0.668,43,1.0,0,observed
8566,0,0.0,0,1.185,44,0.0,0,observed
8567,0,1.0,1,0.459,44,1.0,0,observed
8568,0,0.0,0,0.434,45,1.0,0,observed
8569,0,1.0,1,0.758,45,0.0,0,observed
8570,0,0.0,0,0.593,46,0.0,0,observed
8571,0,0.0,1,0.488,46,0.0,0,observed
8572,0,1.0,0,0.553,47,0.0,0,observed
8573,0,1.0,1,0.552,47,1.0,0,observed
8574,0,0.0,0,1.822,48,0.0,0,observed
8575,0,1.0,1,0.346,48,0.0,0,observed
8576,0,0.0,0,1.269,49,0.0,0,observed
8577,0,0.0,1,0.436,49,0.0,0,observed
8578,0,1.0,0,1.15,50,0.0,0,observed
8579,0,1.0,1,1.629,50,1.0,0,observed
8580,0,0.0,0,1.102,51,1.0,0,observed
8581,0,1.0,1,0.384,51,1.0,0,observed
8582,0,0.0,0,0.412,52,1.0,0,observed
8583,0,1.0,1,0.412,52,1.0,0,observed
8584,0,0.0,0,2.092,53,0.0,0,observed
8585,0,1.0,1,0.735,53,0.0,0,observed
8586,0,1.0,0,0.996,54,0.0,0,observed
8587,0,0.0,1,0.503,54,1.0,0,observed
8588,0,1.0,0,1.591,55,0.0,0,observed
8589,0,0.0,1,0.428,55,1.0,0,observed
8590,0,0.0,0,1.421,56,0.0,0,observed
8591,0,1.0,1,0.53,56,0.0,0,observed
8592,0,0.0,0,0.62,57,0.0,0,observed
8593,0,1.0,1,1.217,57,1.0,0,observed
8594,0,0.0,0,0.331,58,0.0,0,observed
8595,0,1.0,1,0.416,58,1.0,0,observed
8596,0,0.0,0,2.216,59,0.0,0,observed
8597,0,1.0,1,0.652,59,1.0,0,observed
8598,0,1.0,0,2.332,60,1.0,0,observed
8599,0,1.0,1,0.391,60,1.0,0,observed
8600,0,1.0,0,0.485,61,1.0,0,observed
8601,0,1.0,1,0.541,61,1.0,0,observed
8602,0,1.0,0,0.574,62,1.0,0,observed
8603,0,0.0,1,0.849,62,0.0,0,observed
8604,0,1.0,0,0.343,63,1.0,0,observed
8605,0,0.0,1,0.602,63,1.0,0,observed
8606,0,1.0,0,0.337,64,1.0,0,observed
8607,0,0.0,1,0.97,64,1.0,0,observed
8608,0,1.0,0,0.756,65,1.0,0,observed
8609,0,0.0,1,0.371,65,0.0,0,observed
8610,0,1.0,0,0.385,66,1.0,0,observed
8611,0,1.0,1,0.502,66,0.0,0,observed
8612,0,1.0,0,0.51,67,1.0,0,observed
8613,0,0.0,1,0.492,67,1.0,0,observed
8614,0,1.0,0,0.53,68,1.0,0,observed
8615,0,0.0,1,0.456,68,1.0,0,observed
8616,0,1.0,0,0.371,69,0.0,0,observed
8617,0,0.0,1,0.572,69,1.0,0,observed
8618,0,0.0,0,0.744,70,0.0,0,observed
8619,0,0.0,1,0.457,70,0.0,0,observed
8620,0,1.0,0,1.145,71,0.0,0,observed
8621,0,1.0,1,0.475,71,1.0,0,observed
8622,0,0.0,0,0.795,72,0.0,0,observed
8623,0,1.0,1,0.518,72,1.0,0,observed
8624,0,0.0,0,1.923,73,1.0,0,observed
8625,0,0.0,1,0.83,73,0.0,0,observed
8626,0,0.0,0,0.708,74,0.0,0,observed
8627,0,0.0,1,0.522,74,0.0,0,observed
8628,0,0.0,0,2.022,75,0.0,0,observed
8629,0,0.0,1,0.977,75,0.0,0,observed
8630,0,1.0,0,1.147,76,1.0,0,observed
8631,0,0.0,1,0.433,76,0.0,0,observed
8632,0,1.0,0,0.628,77,1.0,0,observed
8633,0,0.0,1,0.869,77,0.0,0,observed
8634,0,0.0,0,1.692,78,1.0,0,observed
8635,0,1.0,1,0.689,78,1.0,0,observed
8636,0,0.0,0,2.197,79,1.0,0,observed
8637,0,1.0,1,0.386,79,1.0,0,observed
8638,0,1.0,0,0.591,80,1.0,0,observed
8639,0,1.0,1,0.73,80,1.0,0,observed
8640,0,1.0,0,1.134,81,0.0,0,observed
8641,0,1.0,1,0.689,81,1.0,0,observed
8642,0,1.0,0,0.718,82,1.0,0,observed
8643,0,1.0,1,1.073,82,0.0,0,observed
8644,0,0.0,0,1.641,83,1.0,0,observed
8645,0,0.0,1,0.521,83,1.0,0,observed
8646,0,0.0,0,1.913,84,0.0,0,observed
8647,0,0.0,1,0.483,84,1.0,0,observed
8648,0,1.0,0,1.355,85,1.0,0,observed
8649,0,0.0,1,0.643,85,0.0,0,observed
8650,0,1.0,0,0.897,86,0.0,0,observed
8651,0,0.0,1,1.27,86,1.0,0,observed
8652,0,0.0,0,0.357,87,1.0,0,observed
8653,0,0.0,1,0.583,87,1.0,0,observed
8654,0,0.0,0,0.391,88,1.0,0,observed
8655,0,0.0,1,1.145,88,1.0,0,observed
8656,0,0.0,0,1.064,89,1.0,0,observed
8657,0,0.0,1,0.481,89,1.0,0,observed
8658,0,1.0,0,0.491,90,0.0,0,observed
8659,0,0.0,1,0.622,90,1.0,0,observed
8660,0,0.0,0,0.613,91,0.0,0,observed
8661,0,0.0,1,0.705,91,1.0,0,observed
8662,0,1.0,0,0.73,92,0.0,0,observed
8663,0,1.0,1,0.512,92,0.0,0,observed
8664,0,1.0,0,1.777,93,1.0,0,observed
8665,0,0.0,1,0.783,93,0.0,0,observed
8666,0,1.0,0,0.368,94,1.0,0,observed
8667,0,0.0,1,0.603,94,1.0,0,observed
8668,0,0.0,0,1.572,95,1.0,0,observed
8669,0,0.0,1,0.535,95,1.0,0,observed
8670,0,1.0,0,1.972,96,0.0,0,observed
8671,0,0.0,1,0.403,96,1.0,0,observed
8672,0,0.0,0,0.35,97,1.0,0,observed
8673,0,0.0,1,0.32,97,1.0,0,observed
8674,0,0.0,0,0.318,98,1.0,0,observed
8675,0,0.0,1,0.316,98,1.0,0,observed
8676,0,1.0,0,0.839,99,1.0,0,observed
8677,0,0.0,1,0.426,99,0.0,0,observed
8678,0,0.0,0,1.611,100,0.0,0,observed
8679,0,0.0,1,0.695,100,1.0,0,observed
8680,0,0.0,0,0.307,101,0.0,0,observed
8681,0,0.0,1,0.38,101,1.0,0,observed
8682,0,1.0,0,1.598,102,0.0,0,observed
8683,0,0.0,1,0.336,102,1.0,0,observed
8684,0,0.0,0,0.543,103,0.0,0,observed
8685,0,0.0,1,0.428,103,0.0,0,observed
8686,0,0.0,0,0.945,104,1.0,0,observed
8687,0,0.0,1,0.92,104,0.0,0,observed
8688,0,0.0,0,0.65,105,1.0,0,observed
8689,0,1.0,1,0.553,105,1.0,0,observed
8690,0,0.0,0,0.681,106,1.0,0,observed
8691,0,1.0,1,0.401,106,1.0,0,observed
8692,0,1.0,0,2.351,107,0.0,0,observed
8693,0,1.0,1,0.402,107,1.0,0,observed
8694,0,0.0,0,0.443,108,1.0,0,observed
8695,0,1.0,1,0.302,108,0.0,0,observed
8696,0,0.0,0,0.453,109,1.0,0,observed
8697,0,0.0,1,0.457,109,1.0,0,observed
8698,0,0.0,0,0.467,110,0.0,0,observed
8699,0,1.0,1,0.476,110,0.0,0,observed
8700,0,1.0,0,1.546,111,0.0,0,observed
8701,0,1.0,1,0.499,111,0.0,0,observed
8702,0,1.0,0,1.096,112,0.0,0,observed
8703,0,0.0,1,0.42,112,1.0,0,observed
8704,0,0.0,0,0.371,113,1.0,0,observed
8705,0,0.0,1,0.604,113,1.0,0,observed
8706,0,0.0,0,0.425,114,1.0,0,observed
8707,0,0.0,1,0.638,114,1.0,0,observed
8708,0,1.0,0,0.612,115,0.0,0,observed
8709,0,0.0,1,0.529,115,1.0,0,observed
8710,0,0.0,0,0.557,116,0.0,0,observed
8711,0,0.0,1,1.091,116,0.0,0,observed
8712,0,1.0,0,0.37,117,0.0,0,observed
8713,0,1.0,1,0.521,117,0.0,0,observed
8714,0,1.0,0,1.287,118,0.0,0,observed
8715,0,0.0,1,0.398,118,0.0,0,observed
8716,0,0.0,0,0.78,119,1.0,0,observed
8717,0,1.0,1,0.373,119,1.0,0,observed
8718,0,0.0,0,0.338,120,1.0,0,observed
8719,0,1.0,1,0.449,120,0.0,0,observed
8720,0,0.0,0,0.465,121,0.0,0,observed
8721,0,0.0,1,0.449,121,1.0,0,observed
8722,0,0.0,0,0.38,122,1.0,0,observed
8723,0,0.0,1,0.628,122,1.0,0,observed
8724,0,0.0,0,0.576,123,1.0,0,observed
8725,0,0.0,1,0.579,123,1.0,0,observed
8726,0,1.0,0,0.569,124,1.0,0,observed
8727,0,0.0,1,0.446,124,1.0,0,observed
8728,0,0.0,0,0.407,125,0.0,0,observed
8729,0,0.0,1,0.479,125,0.0,0,observed
8730,0,0.0,0,0.377,126,0.0,0,observed
8731,0,1.0,1,0.475,126,0.0,0,observed
8732,0,0.0,0,2.252,127,1.0,0,observed
8733,0,1.0,1,0.457,127,0.0,0,observed
8734,0,1.0,0,0.733,128,1.0,0,observed
8735,0,0.0,1,0.569,128,1.0,0,observed
8736,0,1.0,0,0.387,129,0.0,0,observed
8737,0,0.0,1,0.519,129,1.0,0,observed
8738,0,1.0,0,1.65,130,1.0,0,observed
8739,0,0.0,1,0.472,130,0.0,0,observed
8740,0,1.0,0,0.462,131,0.0,0,observed
8741,0,0.0,1,1.679,131,0.0,0,observed
8742,0,1.0,0,0.436,132,0.0,0,observed
8743,0,0.0,1,0.675,132,1.0,0,observed
8744,0,1.0,0,0.353,133,1.0,0,observed
8745,0,0.0,1,0.741,133,0.0,0,observed
8746,0,0.0,0,0.379,134,0.0,0,observed
8747,0,0.0,1,0.457,134,0.0,0,observed
8748,0,0.0,0,0.203,135,0.0,0,observed
8749,0,0.0,1,0.436,135,0.0,0,observed
8750,0,1.0,0,0.855,136,1.0,0,observed
8751,0,1.0,1,0.577,136,0.0,0,observed
8752,0,0.0,0,0.785,137,0.0,0,observed
8753,0,0.0,1,0.444,137,0.0,0,observed
8754,0,0.0,0,1.177,138,1.0,0,observed
8755,0,0.0,1,2.365,138,0.0,0,observed
8756,0,0.0,0,0.363,139,0.0,0,observed
8757,0,0.0,1,0.784,139,0.0,0,observed
8758,0,1.0,0,1.25,140,1.0,0,observed
8759,0,0.0,1,0.415,140,1.0,0,observed
8760,0,1.0,0,0.854,141,0.0,0,observed
8761,0,0.0,1,0.564,141,0.0,0,observed
8762,0,1.0,0,0.599,142,1.0,0,observed
8763,0,1.0,1,1.772,142,1.0,0,observed
8764,0,1.0,0,1.233,143,1.0,0,observed
8765,0,1.0,1,0.498,143,1.0,0,observed
8766,0,0.0,0,0.684,144,0.0,0,observed
8767,0,1.0,1,0.541,144,1.0,0,observed
8768,0,0.0,0,1.839,145,0.0,0,observed
8769,0,1.0,1,0.513,145,1.0,0,observed
8770,0,0.0,0,0.753,146,0.0,0,observed
8771,0,1.0,1,1.56,146,1.0,0,observed
8772,0,1.0,0,0.697,147,0.0,0,observed
8773,0,0.0,1,0.933,147,0.0,0,observed
8774,0,0.0,0,1.307,148,0.0,0,observed
8775,0,1.0,1,0.761,148,1.0,0,observed
8776,0,0.0,0,0.449,149,1.0,0,observed
8777,0,1.0,1,0.547,149,1.0,0,observed
8778,0,0.0,0,0.401,150,0.0,0,observed
8779,0,1.0,1,0.98,150,1.0,0,observed
8780,0,1.0,0,0.458,151,1.0,0,observed
8781,0,1.0,1,0.961,151,0.0,0,observed
8782,0,1.0,0,0.421,152,1.0,0,observed
8783,0,1.0,1,1.206,152,1.0,0,observed
8784,0,1.0,0,0.469,153,1.0,0,observed
8785,0,1.0,1,0.496,153,1.0,0,observed
8786,0,1.0,0,1.592,154,0.0,0,observed
8787,0,1.0,1,0.796,154,1.0,0,observed
8788,0,1.0,0,1.584,155,1.0,0,observed
8789,0,1.0,1,0.629,155,1.0,0,observed
8790,0,1.0,0,0.687,156,1.0,0,observed
8791,0,1.0,1,0.539,156,1.0,0,observed
8792,0,1.0,0,0.586,157,1.0,0,observed
8793,0,1.0,1,0.4,157,1.0,0,observed
8794,0,0.0,0,1.043,158,0.0,0,observed
8795,0,1.0,1,0.48,158,1.0,0,observed
8796,0,0.0,0,0.399,159,0.0,0,observed
8797,0,1.0,1,0.98,159,1.0,0,observed
8798,0,0.0,0,2.043,160,0.0,0,observed
8799,0,1.0,1,0.725,160,1.0,0,observed
10880,1,0.0,0,2.024,1,1.0,0,observed
10881,1,0.0,1,0.689,1,1.0,0,observed
10882,1,0.0,0,0.908,2,0.0,0,observed
10883,1,0.0,1,0.215,2,1.0,0,observed
10884,1,1.0,0,1.749,3,1.0,0,observed
10885,1,1.0,1,0.197,3,0.0,0,observed
10886,1,1.0,0,0.733,4,0.0,0,observed
10887,1,1.0,1,1.064,4,0.0,0,observed
10888,1,0.0,0,1.406,5,0.0,0,observed
10889,1,0.0,1,0.894,5,0.0,0,observed
10890,1,1.0,0,1.463,6,0.0,0,observed
10891,1,1.0,1,0.184,6,0.0,0,observed
10892,1,0.0,0,0.497,7,0.0,0,observed
10893,1,1.0,1,0.347,7,0.0,0,observed
10894,1,0.0,0,0.865,8,0.0,0,observed
10895,1,1.0,1,0.616,8,0.0,0,observed
10896,1,0.0,0,1.423,9,1.0,0,observed
10897,1,0.0,1,0.256,9,1.0,0,observed
10898,1,1.0,0,2.199,10,1.0,0,observed
10899,1,0.0,1,0.849,10,1.0,0,observed
10900,1,1.0,0,1.708,11,0.0,0,observed
10901,1,0.0,1,0.258,11,0.0,0,observed
10902,1,1.0,0,1.38,12,0.0,0,observed
10903,1,0.0,1,0.476,12,1.0,0,observed
10904,1,0.0,0,0.56,13,1.0,0,observed
10905,1,1.0,1,0.205,13,1.0,0,observed
10906,1,0.0,0,0.524,14,1.0,0,observed
10907,1,1.0,1,0.375,14,0.0,0,observed
10908,1,0.0,0,2.21,15,1.0,0,observed
10909,1,1.0,1,0.204,15,0.0,0,observed
10910,1,0.0,0,0.301,16,1.0,0,observed
10911,1,0.0,1,0.185,16,0.0,0,observed
10912,1,0.0,0,1.373,17,1.0,0,observed
10913,1,0.0,1,0.327,17,1.0,0,observed
10914,1,1.0,0,1.067,18,0.0,0,observed
10915,1,0.0,1,0.242,18,1.0,0,observed
10916,1,0.0,0,0.501,19,0.0,0,observed
10917,1,1.0,1,0.21,19,0.0,0,observed
10918,1,1.0,0,0.93,20,0.0,0,observed
10919,1,0.0,1,0.24,20,1.0,0,observed
10920,1,1.0,0,1.001,21,0.0,0,observed
10921,1,1.0,1,0.565,21,0.0,0,observed
10922,1,0.0,0,0.583,22,1.0,0,observed
10923,1,0.0,1,0.187,22,0.0,0,observed
10924,1,0.0,0,0.957,23,0.0,0,observed
10925,1,1.0,1,0.538,23,1.0,0,observed
10926,1,1.0,0,0.812,24,0.0,0,observed
10927,1,1.0,1,0.257,24,0.0,0,observed
10928,1,0.0,0,1.288,25,0.0,0,observed
10929,1,0.0,1,0.28,25,0.0,0,observed
10930,1,0.0,0,0.709,26,0.0,0,observed
10931,1,1.0,1,0.161,26,0.0,0,observed
10932,1,1.0,0,0.645,27,1.0,0,observed
10933,1,0.0,1,0.184,27,1.0,0,observed
10934,1,1.0,0,0.414,28,0.0,0,observed
10935,1,0.0,1,0.337,28,1.0,0,observed
10936,1,0.0,0,1.458,29,0.0,0,observed
10937,1,1.0,1,0.765,29,0.0,0,observed
10938,1,1.0,0,1.788,30,0.0,0,observed
10939,1,0.0,1,0.321,30,1.0,0,observed
10940,1,0.0,0,1.728,31,1.0,0,observed
10941,1,0.0,1,0.466,31,0.0,0,observed
10942,1,0.0,0,0.423,32,1.0,0,observed
10943,1,0.0,1,0.339,32,1.0,0,observed
10944,1,0.0,0,0.56,33,1.0,0,observed
10945,1,0.0,1,0.234,33,1.0,0,observed
10946,1,0.0,0,1.276,34,1.0,0,observed
10947,1,1.0,1,0.247,34,0.0,0,observed
10948,1,0.0,0,0.428,35,1.0,0,observed
10949,1,0.0,1,0.376,35,0.0,0,observed
10950,1,0.0,0,0.43,36,1.0,0,observed
10951,1,1.0,1,0.265,36,1.0,0,observed
10952,1,0.0,0,0.299,37,1.0,0,observed
10953,1,1.0,1,0.261,37,0.0,0,observed
10954,1,0.0,0,2.128,38,1.0,0,observed
10955,1,0.0,1,0.469,38,1.0,0,observed
10956,1,0.0,0,0.504,39,1.0,0,observed
10957,1,0.0,1,0.387,39,1.0,0,observed
10958,1,0.0,0,0.292,40,1.0,0,observed
10959,1,0.0,1,0.463,40,1.0,0,observed
10960,1,0.0,0,0.385,41,0.0,0,observed
10961,1,0.0,1,0.444,41,1.0,0,observed
10962,1,0.0,0,1.623,42,0.0,0,observed
10963,1,0.0,1,0.445,42,0.0,0,observed
10964,1,1.0,0,1.073,43,1.0,0,observed
10965,1,0.0,1,2.34,43,1.0,0,observed
10966,1,1.0,0,2.488,44,0.0,0,observed
10967,1,0.0,1,0.361,44,1.0,0,observed
10968,1,1.0,0,1.528,45,0.0,0,observed
10969,1,0.0,1,0.223,45,0.0,0,observed
10970,1,0.0,0,0.452,46,0.0,0,observed
10971,1,0.0,1,0.38,46,0.0,0,observed
10972,1,1.0,0,1.189,47,1.0,0,observed
10973,1,1.0,1,0.799,47,1.0,0,observed
10974,1,1.0,0,1.627,48,1.0,0,observed
10975,1,1.0,1,0.258,48,1.0,0,observed
10976,1,1.0,0,0.414,49,1.0,0,observed
10977,1,1.0,1,0.358,49,1.0,0,observed
10978,1,1.0,0,0.245,50,1.0,0,observed
10979,1,1.0,1,0.288,50,0.0,0,observed
10980,1,1.0,0,0.35,51,1.0,0,observed
10981,1,0.0,1,0.352,51,1.0,0,observed
10982,1,1.0,0,1.258,52,1.0,0,observed
10983,1,0.0,1,1.514,52,1.0,0,observed
10984,1,1.0,0,0.52,53,0.0,0,observed
10985,1,0.0,1,0.308,53,0.0,0,observed
10986,1,1.0,0,1.188,54,0.0,0,observed
10987,1,1.0,1,0.873,54,1.0,0,observed
10988,1,1.0,0,1.553,55,1.0,0,observed
10989,1,1.0,1,0.512,55,1.0,0,observed
10990,1,1.0,0,0.289,56,0.0,0,observed
10991,1,1.0,1,0.689,56,1.0,0,observed
10992,1,0.0,0,0.894,57,0.0,0,observed
10993,1,1.0,1,0.304,57,1.0,0,observed
10994,1,1.0,0,0.356,58,1.0,0,observed
10995,1,1.0,1,0.343,58,1.0,0,observed
10996,1,1.0,0,0.233,59,1.0,0,observed
10997,1,0.0,1,0.348,59,1.0,0,observed
10998,1,1.0,0,0.92,60,0.0,0,observed
10999,1,0.0,1,0.677,60,0.0,0,observed
11000,1,1.0,0,0.359,61,1.0,0,observed
11001,1,1.0,1,0.288,61,1.0,0,observed
11002,1,1.0,0,0.25,62,0.0,0,observed
11003,1,1.0,1,0.334,62,1.0,0,observed
11004,1,1.0,0,1.124,63,0.0,0,observed
11005,1,1.0,1,0.357,63,1.0,0,observed
11006,1,1.0,0,0.363,64,0.0,0,observed
11007,1,1.0,1,0.262,64,1.0,0,observed
11008,1,0.0,0,0.356,65,0.0,0,observed
11009,1,1.0,1,0.312,65,1.0,0,observed
11010,1,1.0,0,0.567,66,0.0,0,observed
11011,1,1.0,1,0.333,66,0.0,0,observed
11012,1,0.0,0,0.427,67,0.0,0,observed
11013,1,0.0,1,0.268,67,1.0,0,observed
11014,1,0.0,0,1.2,68,0.0,0,observed
11015,1,0.0,1,0.26,68,0.0,0,observed
11016,1,1.0,0,0.311,69,0.0,0,observed
11017,1,1.0,1,0.312,69,1.0,0,observed
11018,1,0.0,0,1.511,70,0.0,0,observed
11019,1,1.0,1,0.311,70,1.0,0,observed
11020,1,1.0,0,0.624,71,0.0,0,observed
11021,1,1.0,1,0.349,71,1.0,0,observed
11022,1,1.0,0,0.652,72,1.0,0,observed
11023,1,1.0,1,0.275,72,0.0,0,observed
11024,1,1.0,0,0.634,73,1.0,0,observed
11025,1,0.0,1,0.29,73,1.0,0,observed
11026,1,1.0,0,0.905,74,1.0,0,observed
11027,1,0.0,1,0.377,74,0.0,0,observed
11028,1,1.0,0,0.358,75,1.0,0,observed
11029,1,1.0,1,0.359,75,1.0,0,observed
11030,1,1.0,0,0.486,76,1.0,0,observed
11031,1,1.0,1,0.337,76,1.0,0,observed
11032,1,1.0,0,0.331,77,1.0,0,observed
11033,1,1.0,1,0.382,77,1.0,0,observed
11034,1,1.0,0,0.351,78,1.0,0,observed
11035,1,1.0,1,0.411,78,1.0,0,observed
11036,1,1.0,0,0.317,79,1.0,0,observed
11037,1,1.0,1,0.278,79,1.0,0,observed
11038,1,1.0,0,0.583,80,1.0,0,observed
11039,1,1.0,1,0.317,80,0.0,0,observed
11040,1,1.0,0,0.325,81,0.0,0,observed
11041,1,0.0,1,0.305,81,1.0,0,observed
11042,1,0.0,0,0.755,82,0.0,0,observed
11043,1,0.0,1,0.284,82,0.0,0,observed
11044,1,1.0,0,0.44,83,1.0,0,observed
11045,1,1.0,1,0.356,83,1.0,0,observed
11046,1,1.0,0,0.513,84,1.0,0,observed
11047,1,1.0,1,0.394,84,0.0,0,observed
11048,1,1.0,0,0.245,85,0.0,0,observed
11049,1,0.0,1,0.389,85,0.0,0,observed
11050,1,1.0,0,0.424,86,0.0,0,observed
11051,1,1.0,1,0.553,86,1.0,0,observed
11052,1,1.0,0,0.767,87,0.0,0,observed
11053,1,1.0,1,0.418,87,0.0,0,observed
11054,1,0.0,0,0.244,88,0.0,0,observed
11055,1,0.0,1,0.45,88,0.0,0,observed
11056,1,1.0,0,1.165,89,1.0,0,observed
11057,1,0.0,1,0.78,89,0.0,0,observed
11058,1,0.0,0,0.683,90,1.0,0,observed
11059,1,1.0,1,0.596,90,1.0,0,observed
11060,1,1.0,0,0.29,91,0.0,0,observed
11061,1,1.0,1,0.41,91,0.0,0,observed
11062,1,0.0,0,0.392,92,0.0,0,observed
11063,1,1.0,1,1.423,92,0.0,0,observed
11064,1,0.0,0,0.269,93,1.0,0,observed
11065,1,0.0,1,0.35,93,1.0,0,observed
11066,1,1.0,0,0.225,94,1.0,0,observed
11067,1,0.0,1,0.407,94,1.0,0,observed
11068,1,0.0,0,0.201,95,1.0,0,observed
11069,1,0.0,1,0.544,95,1.0,0,observed
11070,1,0.0,0,0.189,96,1.0,0,observed
11071,1,0.0,1,0.492,96,1.0,0,observed
11072,1,0.0,0,0.394,97,0.0,0,observed
11073,1,0.0,1,0.383,97,1.0,0,observed
11074,1,1.0,0,0.363,98,0.0,0,observed
11075,1,0.0,1,0.386,98,0.0,0,observed
11076,1,0.0,0,0.207,99,1.0,0,observed
11077,1,1.0,1,0.294,99,0.0,0,observed
11078,1,1.0,0,0.179,100,1.0,0,observed
11079,1,1.0,1,0.518,100,0.0,0,observed
11080,1,1.0,0,0.211,101,1.0,0,observed
11081,1,0.0,1,0.471,101,1.0,0,observed
11082,1,0.0,0,0.159,102,1.0,0,observed
11083,1,1.0,1,0.494,102,0.0,0,observed
11084,1,0.0,0,0.499,103,1.0,0,observed
11085,1,0.0,1,0.391,103,1.0,0,observed
11086,1,1.0,0,0.261,104,0.0,0,observed
11087,1,0.0,1,0.245,104,1.0,0,observed
11088,1,0.0,0,0.285,105,1.0,0,observed
11089,1,0.0,1,0.497,105,1.0,0,observed
11090,1,1.0,0,0.208,106,0.0,0,observed
11091,1,0.0,1,0.34,106,1.0,0,observed
11092,1,0.0,0,0.6,107,0.0,0,observed
11093,1,0.0,1,0.417,107,1.0,0,observed
11094,1,1.0,0,0.195,108,0.0,0,observed
11095,1,0.0,1,0.426,108,1.0,0,observed
11096,1,0.0,0,0.835,109,1.0,0,observed
11097,1,0.0,1,0.624,109,1.0,0,observed
11098,1,0.0,0,0.463,110,1.0,0,observed
11099,1,0.0,1,1.189,110,0.0,0,observed
11100,1,1.0,0,0.18,111,0.0,0,observed
11101,1,1.0,1,0.725,111,1.0,0,observed
11102,1,1.0,0,0.49,112,0.0,0,observed
11103,1,1.0,1,0.365,112,1.0,0,observed
11104,1,0.0,0,0.429,113,1.0,0,observed
11105,1,1.0,1,0.339,113,0.0,0,observed
11106,1,1.0,0,0.288,114,0.0,0,observed
11107,1,0.0,1,0.313,114,1.0,0,observed
11108,1,1.0,0,0.223,115,0.0,0,observed
11109,1,0.0,1,0.304,115,1.0,0,observed
11110,1,1.0,0,0.309,116,0.0,0,observed
11111,1,0.0,1,0.315,116,1.0,0,observed
11112,1,0.0,0,0.65,117,1.0,0,observed
11113,1,0.0,1,0.317,117,0.0,0,observed
11114,1,1.0,0,0.264,118,0.0,0,observed
11115,1,1.0,1,0.42,118,0.0,0,observed
11116,1,0.0,0,0.518,119,1.0,0,observed
11117,1,0.0,1,0.356,119,1.0,0,observed
11118,1,0.0,0,0.173,120,1.0,0,observed
11119,1,0.0,1,0.306,120,1.0,0,observed
11120,1,1.0,0,0.214,121,0.0,0,observed
11121,1,0.0,1,0.745,121,0.0,0,observed
11122,1,1.0,0,0.169,122,1.0,0,observed
11123,1,1.0,1,1.043,122,1.0,0,observed
11124,1,0.0,0,0.15,123,0.0,0,observed
11125,1,1.0,1,0.489,123,1.0,0,observed
11126,1,0.0,0,0.519,124,0.0,0,observed
11127,1,1.0,1,0.423,124,1.0,0,observed
11128,1,0.0,0,1.255,125,0.0,0,observed
11129,1,1.0,1,0.515,125,0.0,0,observed
11130,1,0.0,0,0.188,126,1.0,0,observed
11131,1,0.0,1,0.296,126,1.0,0,observed
11132,1,1.0,0,0.711,127,1.0,0,observed
11133,1,0.0,1,0.346,127,1.0,0,observed
11134,1,0.0,0,0.582,128,0.0,0,observed
11135,1,0.0,1,0.362,128,1.0,0,observed
11136,1,0.0,0,0.177,129,0.0,0,observed
11137,1,0.0,1,0.343,129,0.0,0,observed
11138,1,1.0,0,0.213,130,0.0,0,observed
11139,1,1.0,1,0.333,130,0.0,0,observed
11140,1,1.0,0,0.214,131,1.0,0,observed
11141,1,0.0,1,0.317,131,0.0,0,observed
11142,1,1.0,0,1.051,132,0.0,0,observed
11143,1,1.0,1,0.457,132,1.0,0,observed
11144,1,0.0,0,0.493,133,1.0,0,observed
11145,1,1.0,1,0.307,133,0.0,0,observed
11146,1,1.0,0,0.22,134,0.0,0,observed
11147,1,0.0,1,0.471,134,0.0,0,observed
11148,1,1.0,0,0.234,135,0.0,0,observed
11149,1,0.0,1,0.647,135,1.0,0,observed
11150,1,1.0,0,0.279,136,1.0,0,observed
11151,1,0.0,1,0.584,136,1.0,0,observed
11152,1,1.0,0,0.197,137,1.0,0,observed
11153,1,0.0,1,0.373,137,0.0,0,observed
11154,1,1.0,0,0.186,138,1.0,0,observed
11155,1,1.0,1,0.394,138,1.0,0,observed
11156,1,1.0,0,0.199,139,0.0,0,observed
11157,1,1.0,1,0.415,139,0.0,0,observed
11158,1,0.0,0,0.341,140,0.0,0,observed
11159,1,0.0,1,0.339,140,0.0,0,observed
11160,1,0.0,0,0.196,141,0.0,0,observed
11161,1,1.0,1,0.33,141,1.0,0,observed
11162,1,0.0,0,0.22,142,0.0,0,observed
11163,1,1.0,1,0.349,142,1.0,0,observed
11164,1,0.0,0,0.513,143,0.0,0,observed
11165,1,1.0,1,0.366,143,1.0,0,observed
11166,1,0.0,0,1.808,144,0.0,0,observed
11167,1,1.0,1,0.32,144,1.0,0,observed
11168,1,1.0,0,0.165,145,1.0,0,observed
11169,1,1.0,1,0.281,145,0.0,0,observed
11170,1,1.0,0,0.182,146,0.0,0,observed
11171,1,0.0,1,0.337,146,0.0,0,observed
11172,1,0.0,0,0.469,147,1.0,0,observed
11173,1,1.0,1,0.36,147,1.0,0,observed
11174,1,1.0,0,0.153,148,1.0,0,observed
11175,1,1.0,1,0.403,148,1.0,0,observed
11176,1,1.0,0,0.557,149,1.0,0,observed
11177,1,1.0,1,0.691,149,1.0,0,observed
11178,1,1.0,0,0.524,150,1.0,0,observed
11179,1,1.0,1,0.353,150,0.0,0,observed
11180,1,0.0,0,0.462,151,0.0,0,observed
11181,1,0.0,1,0.596,151,1.0,0,observed
11182,1,1.0,0,0.313,152,0.0,0,observed
11183,1,0.0,1,0.485,152,0.0,0,observed
11184,1,1.0,0,0.24,153,1.0,0,observed
11185,1,1.0,1,0.357,153,1.0,0,observed
11186,1,0.0,0,0.283,154,0.0,0,observed
11187,1,1.0,1,0.381,154,1.0,0,observed
11188,1,1.0,0,0.176,155,1.0,0,observed
11189,1,1.0,1,0.333,155,1.0,0,observed
11190,1,0.0,0,0.449,156,0.0,0,observed
11191,1,1.0,1,0.306,156,1.0,0,observed
11192,1,0.0,0,0.461,157,0.0,0,observed
11193,1,1.0,1,0.296,157,1.0,0,observed
11194,1,0.0,0,0.351,158,0.0,0,observed
11195,1,1.0,1,0.527,158,1.0,0,observed
11196,1,0.0,0,0.488,159,0.0,0,observed
11197,1,1.0,1,0.323,159,1.0,0,observed
11198,1,1.0,0,0.499,160,1.0,0,observed
11199,1,1.0,1,0.402,160,1.0,0,observed
0,0,1.0,0,2.1349378098971683,1,1.0,1,simulated
1,0,1.0,0,0.37693780989658127,2,1.0,1,simulated
2,0,1.0,0,0.42093780989659596,3,1.0,1,simulated
3,0,1.0,0,0.40593780989659095,4,1.0,1,simulated
4,0,1.0,0,0.570937809896646,5,1.0,1,simulated
5,0,1.0,0,0.579937809896649,6,1.0,1,simulated
6,0,0.0,0,0.37293780989257247,7,0.0,1,simulated
7,0,1.0,0,0.5329378098966333,8,1.0,1,simulated
8,0,0.0,0,0.7019378098926823,9,0.0,1,simulated
9,0,1.0,0,0.8319378098967332,10,0.0,1,simulated
10,0,1.0,0,0.594937809896654,11,1.0,1,simulated
11,0,0.0,0,0.6469378098926639,12,0.0,1,simulated
12,0,0.0,0,0.5259378098926235,13,0.0,1,simulated
13,0,1.0,0,1.6119378098969936,14,1.0,1,simulated
14,0,1.0,0,0.49193780989661967,15,1.0,1,simulated
15,0,0.0,0,0.4069378098925838,16,0.0,1,simulated
16,0,1.0,0,0.8109378098967261,17,0.0,1,simulated
17,0,1.0,0,0.36793780989657826,18,1.0,1,simulated
18,0,0.0,0,1.3699378098929054,19,0.0,1,simulated
19,0,1.0,0,0.495937809896621,20,0.0,1,simulated
20,0,1.0,0,0.6269378098966647,21,1.0,1,simulated
21,0,1.0,0,0.40293780989658995,22,0.0,1,simulated
22,0,0.0,0,1.5699378098929722,23,0.0,1,simulated
23,0,0.0,0,0.5169378098926205,24,1.0,1,simulated
24,0,1.0,0,0.3069378098965579,25,1.0,1,simulated
25,0,0.0,0,1.8379378098930617,26,0.0,1,simulated
26,0,1.0,0,1.3169378098968951,27,1.0,1,simulated
27,0,1.0,0,0.5099378098966256,28,1.0,1,simulated
28,0,1.0,0,0.8009378098967228,29,1.0,1,simulated
29,0,0.0,0,1.0369378098927942,30,0.0,1,simulated
30,0,1.0,0,0.3599378098965756,31,0.0,1,simulated
31,0,0.0,0,1.0069378098927841,32,0.0,1,simulated
32,0,0.0,0,0.5519378098926322,33,0.0,1,simulated
33,0,0.0,0,0.41593780989258683,34,1.0,1,simulated
34,0,0.0,0,0.7739378098927063,35,1.0,1,simulated
35,0,0.0,0,0.5069378098926172,36,0.0,1,simulated
36,0,1.0,0,0.513937809896627,37,1.0,1,simulated
37,0,1.0,0,1.253937809896874,38,1.0,1,simulated
38,0,1.0,0,0.5149378098966273,39,1.0,1,simulated
39,0,1.0,0,0.5429378098966366,40,0.0,1,simulated
40,0,0.0,0,0.4069378098925838,41,0.0,1,simulated
41,0,0.0,0,1.6239378098929902,42,0.0,1,simulated
42,0,1.0,0,0.46493780989661065,43,1.0,1,simulated
43,0,1.0,0,0.7119378098966931,44,1.0,1,simulated
44,0,1.0,0,0.7809378098967161,45,1.0,1,simulated
45,0,0.0,0,0.9519378098927658,46,0.0,1,simulated
46,0,0.0,0,0.5479378098926309,47,1.0,1,simulated
47,0,1.0,0,0.3669378098965779,48,1.0,1,simulated
48,0,1.0,0,0.6299378098966657,49,0.0,1,simulated
49,0,0.0,0,0.8049378098927167,50,0.0,1,simulated
50,0,0.0,0,0.4349378098925932,51,1.0,1,simulated
51,0,0.0,0,0.6249378098926566,52,0.0,1,simulated
52,0,0.0,0,0.81493780989272,53,1.0,1,simulated
53,0,0.0,0,0.4709378098926052,54,1.0,1,simulated
54,0,0.0,0,1.5889378098929785,55,0.0,1,simulated
55,0,0.0,0,0.3909378098925785,56,0.0,1,simulated
56,0,0.0,0,1.1989378098928483,57,1.0,1,simulated
57,0,0.0,0,0.6469378098926639,58,1.0,1,simulated
58,0,0.0,0,0.5459378098926302,59,1.0,1,simulated
59,0,0.0,0,0.9309378098927588,60,0.0,1,simulated
60,0,0.0,0,0.46893780989260453,61,0.0,1,simulated
61,0,1.0,0,0.44393780989660364,62,1.0,1,simulated
62,0,0.0,0,1.137937809892828,63,1.0,1,simulated
63,0,0.0,0,0.8589378098927347,64,0.0,1,simulated
64,0,1.0,0,1.217937809896862,65,1.0,1,simulated
65,0,1.0,0,0.7159378098966944,66,1.0,1,simulated
66,0,1.0,0,1.1679378098968454,67,1.0,1,simulated
67,0,0.0,0,0.763937809892703,68,0.0,1,simulated
68,0,1.0,0,0.8179378098967285,69,0.0,1,simulated
69,0,1.0,0,0.38193780989658294,70,1.0,1,simulated
70,0,1.0,0,0.8309378098967328,71,1.0,1,simulated
71,0,1.0,0,0.38293780989658327,72,1.0,1,simulated
72,0,1.0,0,1.169937809896846,73,1.0,1,simulated
73,0,1.0,0,0.5839378098966503,74,1.0,1,simulated
74,0,0.0,0,0.6299378098926582,75,0.0,1,simulated
75,0,1.0,0,0.7509378098967061,76,1.0,1,simulated
76,0,0.0,0,0.4039378098925828,77,1.0,1,simulated
77,0,0.0,0,2.437937809893262,78,0.0,1,simulated
78,0,1.0,0,0.7039378098966904,79,0.0,1,simulated
79,0,0.0,0,0.5789378098926412,80,0.0,1,simulated
80,0,0.0,0,0.5739378098926395,81,0.0,1,simulated
81,0,0.0,0,0.3969378098925805,82,0.0,1,simulated
82,0,0.0,0,0.4039378098925828,83,0.0,1,simulated
83,0,0.0,0,0.3539378098925661,84,0.0,1,simulated
84,0,1.0,0,0.3749378098965806,85,1.0,1,simulated
85,0,0.0,0,0.5359378098926268,86,0.0,1,simulated
86,0,1.0,0,0.456937809896608,87,1.0,1,simulated
87,0,1.0,0,0.48193780989661633,88,1.0,1,simulated
88,0,1.0,0,0.456937809896608,89,1.0,1,simulated
89,0,1.0,0,0.6029378098966567,90,1.0,1,simulated
90,0,1.0,0,0.9909378098967863,91,1.0,1,simulated
91,0,0.0,0,0.35793780989256746,92,1.0,1,simulated
92,0,0.0,0,0.5849378098926432,93,0.0,1,simulated
93,0,1.0,0,0.3389378098965686,94,0.0,1,simulated
94,0,0.0,0,0.4889378098926112,95,1.0,1,simulated
95,0,0.0,0,0.3419378098925621,96,0.0,1,simulated
96,0,1.0,0,1.1499378098968394,97,1.0,1,simulated
97,0,1.0,0,0.5309378098966326,98,1.0,1,simulated
98,0,1.0,0,1.3979378098969222,99,0.0,1,simulated
99,0,0.0,0,0.3589378098925678,100,0.0,1,simulated
100,0,1.0,0,0.7939378098967205,101,1.0,1,simulated
101,0,1.0,0,0.3689378098965786,102,0.0,1,simulated
102,0,0.0,0,0.37493780989257314,103,0.0,1,simulated
103,0,1.0,0,0.3919378098965863,104,0.0,1,simulated
104,0,1.0,0,0.9879378098967853,105,1.0,1,simulated
105,0,1.0,0,1.0459378098968046,106,1.0,1,simulated
106,0,0.0,0,0.5079378098926175,107,0.0,1,simulated
107,0,1.0,0,1.112937809896827,108,1.0,1,simulated
108,0,1.0,0,0.36793780989657826,109,1.0,1,simulated
109,0,0.0,0,0.3589378098925678,110,0.0,1,simulated
110,0,0.0,0,0.5449378098926299,111,1.0,1,simulated
111,0,1.0,0,1.0569378098968083,112,1.0,1,simulated
112,0,0.0,0,0.5719378098926389,113,0.0,1,simulated
113,0,1.0,0,0.4189378098965953,114,1.0,1,simulated
114,0,0.0,0,0.9389378098927614,115,1.0,1,simulated
115,0,1.0,0,0.3979378098965883,116,1.0,1,simulated
116,0,1.0,0,0.45893780989660865,117,1.0,1,simulated
117,0,1.0,0,0.6139378098966604,118,0.0,1,simulated
118,0,0.0,0,1.760937809893036,119,1.0,1,simulated
119,0,1.0,0,2.0429378098971376,120,0.0,1,simulated
120,0,0.0,0,0.4379378098925942,121,0.0,1,simulated
121,0,1.0,0,0.3609378098965759,122,1.0,1,simulated
122,0,1.0,0,0.6619378098966764,123,1.0,1,simulated
123,0,1.0,0,0.48593780989661767,124,1.0,1,simulated
124,0,0.0,0,0.5589378098926345,125,1.0,1,simulated
125,0,0.0,0,0.34293780989256245,126,1.0,1,simulated
126,0,1.0,0,0.3519378098965729,127,1.0,1,simulated
127,0,0.0,0,1.0229378098927895,128,1.0,1,simulated
128,0,1.0,0,0.5719378098966463,129,0.0,1,simulated
129,0,1.0,0,0.47993780989661566,130,1.0,1,simulated
130,0,1.0,0,0.7599378098967091,131,1.0,1,simulated
131,0,1.0,0,1.0539378098968073,132,0.0,1,simulated
132,0,0.0,0,0.7289378098926913,133,0.0,1,simulated
133,0,0.0,0,0.6009378098926486,134,1.0,1,simulated
134,0,0.0,0,0.5389378098926279,135,1.0,1,simulated
135,0,0.0,0,0.5569378098926339,136,0.0,1,simulated
136,0,0.0,0,0.4479378098925975,137,0.0,1,simulated
137,0,0.0,0,0.7479378098926976,138,0.0,1,simulated
138,0,1.0,0,0.5419378098966363,139,0.0,1,simulated
139,0,1.0,0,0.5099378098966256,140,1.0,1,simulated
140,0,1.0,0,0.37093780989657926,141,1.0,1,simulated
141,0,1.0,0,0.4279378098965983,142,0.0,1,simulated
142,0,1.0,0,0.3979378098965883,143,1.0,1,simulated
143,0,1.0,0,0.45293780989660665,144,1.0,1,simulated
144,0,1.0,0,0.4429378098966033,145,1.0,1,simulated
145,0,0.0,0,0.6189378098926546,146,0.0,1,simulated
146,0,0.0,0,0.5469378098926305,147,0.0,1,simulated
147,0,0.0,0,0.8399378098927284,148,1.0,1,simulated
148,0,0.0,0,0.7389378098926946,149,1.0,1,simulated
149,0,0.0,0,0.9029378098927494,150,0.0,1,simulated
150,0,0.0,0,0.5099378098926182,151,0.0,1,simulated
151,0,1.0,0,0.519937809896629,152,0.0,1,simulated
152,0,1.0,0,0.5459378098966376,153,1.0,1,simulated
153,0,1.0,0,0.7769378098967148,154,1.0,1,simulated
154,0,1.0,0,0.5779378098966483,155,1.0,1,simulated
155,0,1.0,0,0.7719378098967131,156,1.0,1,simulated
156,0,1.0,0,0.3659378098965776,157,1.0,1,simulated
157,0,0.0,0,0.6779378098926743,158,1.0,1,simulated
158,0,1.0,0,1.1709378098968464,159,1.0,1,simulated
159,0,0.0,0,1.0489378098927982,160,1.0,1,simulated
160,0,1.0,1,0.654937809896674,1,1.0,1,simulated
161,0,1.0,1,0.8509378098967395,2,1.0,1,simulated
162,0,0.0,1,0.32793780989255744,3,1.0,1,simulated
163,0,1.0,1,0.4639378098966103,4,0.0,1,simulated
164,0,1.0,1,0.8849378098967509,5,1.0,1,simulated
165,0,0.0,1,0.5629378098926359,6,1.0,1,simulated
166,0,1.0,1,0.3129378098965599,7,1.0,1,simulated
167,0,1.0,1,0.39393780989658694,8,1.0,1,simulated
168,0,1.0,1,0.8769378098967482,9,1.0,1,simulated
169,0,1.0,1,0.8439378098967372,10,1.0,1,simulated
170,0,0.0,1,1.5499378098929655,11,0.0,1,simulated
171,0,1.0,1,1.1509378098968397,12,0.0,1,simulated
172,0,1.0,1,0.36993780989657893,13,0.0,1,simulated
173,0,1.0,1,0.40893780989659195,14,0.0,1,simulated
174,0,0.0,1,1.4749378098929404,15,0.0,1,simulated
175,0,1.0,1,0.47693780989661466,16,0.0,1,simulated
176,0,1.0,1,0.6749378098966807,17,0.0,1,simulated
177,0,1.0,1,0.3929378098965866,18,1.0,1,simulated
178,0,1.0,1,0.456937809896608,19,0.0,1,simulated
179,0,1.0,1,1.253937809896874,20,0.0,1,simulated
180,0,0.0,1,0.7169378098926873,21,0.0,1,simulated
181,0,0.0,1,0.7349378098926933,22,1.0,1,simulated
182,0,0.0,1,0.6289378098926579,23,1.0,1,simulated
183,0,0.0,1,0.4299378098925915,24,0.0,1,simulated
184,0,1.0,1,0.4579378098966083,25,1.0,1,simulated
185,0,0.0,1,0.4499378098925982,26,0.0,1,simulated
186,0,1.0,1,0.5089378098966253,27,1.0,1,simulated
187,0,1.0,1,0.5069378098966246,28,1.0,1,simulated
188,0,1.0,1,0.9739378098967806,29,1.0,1,simulated
189,0,1.0,1,0.39393780989658694,30,1.0,1,simulated
190,0,1.0,1,0.9879378098967853,31,1.0,1,simulated
191,0,0.0,1,0.9069378098927507,32,1.0,1,simulated
192,0,0.0,1,0.853937809892733,33,0.0,1,simulated
193,0,1.0,1,0.6649378098966774,34,0.0,1,simulated
194,0,0.0,1,1.3069378098928843,35,0.0,1,simulated
195,0,1.0,1,0.7709378098967128,36,1.0,1,simulated
196,0,1.0,1,0.40593780989659095,37,1.0,1,simulated
197,0,1.0,1,0.531937809896633,38,0.0,1,simulated
198,0,0.0,1,1.266937809892871,39,1.0,1,simulated
199,0,0.0,1,0.3709378098925718,40,0.0,1,simulated
200,0,1.0,1,0.603937809896657,41,1.0,1,simulated
201,0,1.0,1,0.39993780989658895,42,1.0,1,simulated
202,0,0.0,1,1.1669378098928376,43,0.0,1,simulated
203,0,0.0,1,2.167937809893172,44,0.0,1,simulated
204,0,0.0,1,0.721937809892689,45,1.0,1,simulated
205,0,1.0,1,0.6599378098966757,46,1.0,1,simulated
206,0,1.0,1,0.6659378098966777,47,0.0,1,simulated
207,0,0.0,1,0.829937809892725,48,1.0,1,simulated
208,0,0.0,1,0.47293780989260586,49,0.0,1,simulated
209,0,1.0,1,2.615937809897329,50,0.0,1,simulated
210,0,1.0,1,0.8159378098967278,51,1.0,1,simulated
211,0,1.0,1,1.175937809896848,52,1.0,1,simulated
212,0,1.0,1,0.564937809896644,53,1.0,1,simulated
213,0,1.0,1,0.6739378098966804,54,0.0,1,simulated
214,0,1.0,1,0.6469378098966714,55,0.0,1,simulated
215,0,1.0,1,0.7239378098966971,56,0.0,1,simulated
216,0,1.0,1,0.5149378098966273,57,0.0,1,simulated
217,0,0.0,1,1.251937809892866,58,1.0,1,simulated
218,0,0.0,1,0.5819378098926422,59,0.0,1,simulated
219,0,0.0,1,1.3759378098929074,60,1.0,1,simulated
220,0,0.0,1,0.46393780989260286,61,0.0,1,simulated
221,0,1.0,1,0.9219378098967632,62,1.0,1,simulated
222,0,1.0,1,1.049937809896806,63,1.0,1,simulated
223,0,1.0,1,0.8279378098967318,64,0.0,1,simulated
224,0,0.0,1,0.6049378098926499,65,1.0,1,simulated
225,0,0.0,1,0.706937809892684,66,0.0,1,simulated
226,0,0.0,1,0.9209378098927554,67,0.0,1,simulated
227,0,1.0,1,0.7239378098966971,68,1.0,1,simulated
228,0,1.0,1,0.8299378098967325,69,0.0,1,simulated
229,0,1.0,1,1.220937809896863,70,1.0,1,simulated
230,0,1.0,1,0.8269378098967315,71,1.0,1,simulated
231,0,0.0,1,0.5149378098926198,72,1.0,1,simulated
232,0,1.0,1,0.9729378098967802,73,1.0,1,simulated
233,0,1.0,1,0.648937809896672,74,1.0,1,simulated
234,0,0.0,1,0.3349378098925598,75,0.0,1,simulated
235,0,1.0,1,0.3279378098965649,76,0.0,1,simulated
236,0,0.0,1,0.6689378098926713,77,0.0,1,simulated
237,0,0.0,1,0.9119378098927524,78,0.0,1,simulated
238,0,0.0,1,0.41593780989258683,79,0.0,1,simulated
239,0,1.0,1,0.7369378098967014,80,1.0,1,simulated
240,0,1.0,1,2.8759378098974158,81,0.0,1,simulated
241,0,1.0,1,0.6789378098966821,82,1.0,1,simulated
242,0,1.0,1,0.7909378098967195,83,0.0,1,simulated
243,0,0.0,1,0.31693780989255377,84,0.0,1,simulated
244,0,0.0,1,0.47493780989260653,85,0.0,1,simulated
245,0,1.0,1,0.6239378098966637,86,1.0,1,simulated
246,0,1.0,1,0.38493780989658394,87,1.0,1,simulated
247,0,0.0,1,0.45493780989259985,88,0.0,1,simulated
248,0,1.0,1,1.5569378098969753,89,0.0,1,simulated
249,0,0.0,1,0.42293780989258917,90,0.0,1,simulated
250,0,1.0,1,0.7849378098967175,91,1.0,1,simulated
251,0,1.0,1,0.5929378098966533,92,1.0,1,simulated
252,0,1.0,1,0.9029378098967569,93,1.0,1,simulated
253,0,1.0,1,0.7699378098967125,94,1.0,1,simulated
254,0,1.0,1,0.5179378098966283,95,1.0,1,simulated
255,0,0.0,1,1.0059378098927838,96,0.0,1,simulated
256,0,0.0,1,1.1049378098928169,97,0.0,1,simulated
257,0,1.0,1,1.1959378098968547,98,1.0,1,simulated
258,0,1.0,1,0.7299378098966991,99,1.0,1,simulated
259,0,1.0,1,0.5869378098966513,100,1.0,1,simulated
260,0,0.0,1,0.5519378098926322,101,1.0,1,simulated
261,0,0.0,1,0.8379378098927277,102,0.0,1,simulated
262,0,1.0,1,0.5869378098966513,103,0.0,1,simulated
263,0,1.0,1,0.9529378098967736,104,0.0,1,simulated
264,0,0.0,1,0.33393780989255945,105,0.0,1,simulated
265,0,0.0,1,1.5309378098929591,106,1.0,1,simulated
266,0,0.0,1,0.39893780989258115,107,0.0,1,simulated
267,0,0.0,1,0.6839378098926763,108,0.0,1,simulated
268,0,1.0,1,0.8979378098967552,109,1.0,1,simulated
269,0,0.0,1,0.42793780989259084,110,1.0,1,simulated
270,0,1.0,1,1.8839378098970845,111,0.0,1,simulated
271,0,0.0,1,1.6639378098930035,112,0.0,1,simulated
272,0,0.0,1,0.8559378098927337,113,1.0,1,simulated
273,0,1.0,1,0.42893780989659863,114,1.0,1,simulated
274,0,0.0,1,1.275937809892874,115,0.0,1,simulated
275,0,1.0,1,0.519937809896629,116,1.0,1,simulated
276,0,1.0,1,0.6029378098966567,117,1.0,1,simulated
277,0,1.0,1,0.7709378098967128,118,1.0,1,simulated
278,0,1.0,1,0.9879378098967853,119,0.0,1,simulated
279,0,0.0,1,1.3369378098928943,120,0.0,1,simulated
280,0,0.0,1,0.34893780989256445,121,0.0,1,simulated
281,0,0.0,1,0.748937809892698,122,0.0,1,simulated
282,0,0.0,1,0.4269378098925905,123,0.0,1,simulated
283,0,1.0,1,0.483937809896617,124,1.0,1,simulated
284,0,1.0,1,0.4339378098966003,125,1.0,1,simulated
285,0,0.0,1,0.31893780989255444,126,0.0,1,simulated
286,0,1.0,1,0.3609378098965759,127,1.0,1,simulated
287,0,0.0,1,0.7839378098927097,128,1.0,1,simulated
288,0,1.0,1,0.7269378098966981,129,1.0,1,simulated
289,0,0.0,1,0.5139378098926195,130,0.0,1,simulated
290,0,1.0,1,0.6979378098966884,131,0.0,1,simulated
291,0,1.0,1,0.5449378098966373,132,0.0,1,simulated
292,0,0.0,1,0.6469378098926639,133,0.0,1,simulated
293,0,0.0,1,1.167937809892838,134,0.0,1,simulated
294,0,1.0,1,1.1829378098968504,135,0.0,1,simulated
295,0,0.0,1,0.7619378098927023,136,1.0,1,simulated
296,0,0.0,1,0.6239378098926562,137,1.0,1,simulated
297,0,0.0,1,0.33393780989255945,138,1.0,1,simulated
298,0,0.0,1,0.4059378098925835,139,1.0,1,simulated
299,0,0.0,1,0.41693780989258716,140,0.0,1,simulated
300,0,0.0,1,0.3209378098925551,141,1.0,1,simulated
301,0,1.0,1,0.5219378098966296,142,1.0,1,simulated
302,0,1.0,1,0.34993780989657225,143,0.0,1,simulated
303,0,0.0,1,0.5599378098926349,144,1.0,1,simulated
304,0,0.0,1,0.45493780989259985,145,1.0,1,simulated
305,0,0.0,1,0.4499378098925982,146,0.0,1,simulated
306,0,0.0,1,1.0919378098928125,147,0.0,1,simulated
307,0,1.0,1,0.5279378098966316,148,0.0,1,simulated
308,0,0.0,1,0.5199378098926215,149,0.0,1,simulated
309,0,0.0,1,0.6299378098926582,150,0.0,1,simulated
310,0,1.0,1,1.1149378098968277,151,1.0,1,simulated
311,0,1.0,1,0.9749378098967809,152,1.0,1,simulated
312,0,1.0,1,1.2049378098968577,153,1.0,1,simulated
313,0,1.0,1,0.453937809896607,154,1.0,1,simulated
314,0,1.0,1,1.5689378098969793,155,1.0,1,simulated
315,0,1.0,1,0.6229378098966634,156,0.0,1,simulated
316,0,1.0,1,0.3279378098965649,157,0.0,1,simulated
317,0,1.0,1,0.5299378098966323,158,1.0,1,simulated
318,0,1.0,1,0.618937809896662,159,1.0,1,simulated
319,0,0.0,1,1.1009378098928155,160,0.0,1,simulated
320,1,1.0,0,0.3415047631149183,1,1.0,1,simulated
321,1,0.0,0,0.584504763110992,2,0.0,1,simulated
322,1,1.0,0,0.21750476311487688,3,1.0,1,simulated
323,1,1.0,0,0.5675047631149938,4,0.0,1,simulated
324,1,0.0,0,0.4885047631109599,5,0.0,1,simulated
325,1,0.0,0,0.5595047631109836,6,0.0,1,simulated
326,1,1.0,0,0.19950476311487086,7,1.0,1,simulated
327,1,1.0,0,0.433504763114949,8,1.0,1,simulated
328,1,1.0,0,0.6045047631150061,9,0.0,1,simulated
329,1,1.0,0,0.5835047631149991,10,0.0,1,simulated
330,1,0.0,0,0.19150476311086073,11,1.0,1,simulated
331,1,1.0,0,0.17050476311486118,12,0.0,1,simulated
332,1,0.0,0,0.48950476311096025,13,0.0,1,simulated
333,1,1.0,0,0.5645047631149928,14,1.0,1,simulated
334,1,1.0,0,0.29050476311490125,15,1.0,1,simulated
335,1,1.0,0,0.2185047631148772,16,1.0,1,simulated
336,1,1.0,0,0.3305047631149146,17,1.0,1,simulated
337,1,1.0,0,0.31750476311491027,18,0.0,1,simulated
338,1,1.0,0,0.38750476311493365,19,1.0,1,simulated
339,1,1.0,0,0.23450476311488255,20,0.0,1,simulated
340,1,1.0,0,0.5875047631150004,21,1.0,1,simulated
341,1,0.0,0,0.5715047631109876,22,1.0,1,simulated
342,1,0.0,0,0.24250476311087776,23,0.0,1,simulated
343,1,1.0,0,0.5155047631149764,24,1.0,1,simulated
344,1,1.0,0,0.454504763114956,25,0.0,1,simulated
345,1,1.0,0,0.8555047631150899,26,1.0,1,simulated
346,1,1.0,0,0.17550476311486285,27,1.0,1,simulated
347,1,1.0,0,0.2985047631149039,28,1.0,1,simulated
348,1,1.0,0,0.43650476311495,29,1.0,1,simulated
349,1,1.0,0,0.20750476311487354,30,1.0,1,simulated
350,1,1.0,0,0.3655047631149263,31,1.0,1,simulated
351,1,1.0,0,0.40550476311493966,32,1.0,1,simulated
352,1,0.0,0,0.33650476311090916,33,0.0,1,simulated
353,1,1.0,0,0.24350476311488556,34,1.0,1,simulated
354,1,1.0,0,0.23750476311488355,35,1.0,1,simulated
355,1,0.0,0,1.0465047631111462,36,0.0,1,simulated
356,1,0.0,0,0.4325047631109412,37,0.0,1,simulated
357,1,1.0,0,0.8125047631150756,38,1.0,1,simulated
358,1,1.0,0,0.1975047631148702,39,1.0,1,simulated
359,1,1.0,0,0.3415047631149183,40,1.0,1,simulated
360,1,1.0,0,0.47250476311496203,41,1.0,1,simulated
361,1,1.0,0,0.4535047631149557,42,1.0,1,simulated
362,1,1.0,0,0.8205047631150783,43,1.0,1,simulated
363,1,1.0,0,0.3205047631149113,44,0.0,1,simulated
364,1,0.0,0,0.5765047631109893,45,0.0,1,simulated
365,1,0.0,0,0.4325047631109412,46,1.0,1,simulated
366,1,0.0,0,0.6665047631110194,47,0.0,1,simulated
367,1,0.0,0,0.6225047631110047,48,0.0,1,simulated
368,1,0.0,0,0.35450476311091517,49,0.0,1,simulated
369,1,0.0,0,1.1505047631111809,50,0.0,1,simulated
370,1,0.0,0,0.30950476311090014,51,0.0,1,simulated
371,1,1.0,0,0.5215047631149784,52,1.0,1,simulated
372,1,0.0,0,0.21050476311086708,53,0.0,1,simulated
373,1,1.0,0,0.3325047631149153,54,1.0,1,simulated
374,1,1.0,0,0.17650476311486318,55,1.0,1,simulated
375,1,1.0,0,0.2765047631148966,56,1.0,1,simulated
376,1,0.0,0,0.7865047631110594,57,0.0,1,simulated
377,1,0.0,0,0.7965047631110628,58,0.0,1,simulated
378,1,1.0,0,0.19850476311487053,59,1.0,1,simulated
379,1,1.0,0,0.5755047631149964,60,1.0,1,simulated
380,1,1.0,0,0.4015047631149383,61,0.0,1,simulated
381,1,0.0,0,1.1165047631111695,62,0.0,1,simulated
382,1,1.0,0,0.17250476311486185,63,1.0,1,simulated
383,1,1.0,0,0.3265047631149133,64,1.0,1,simulated
384,1,1.0,0,0.5245047631149794,65,1.0,1,simulated
385,1,1.0,0,0.27850476311489725,66,1.0,1,simulated
386,1,0.0,0,0.5205047631109706,67,0.0,1,simulated
387,1,1.0,0,0.17550476311486285,68,1.0,1,simulated
388,1,1.0,0,0.897504763115104,69,1.0,1,simulated
389,1,1.0,0,0.418504763114944,70,1.0,1,simulated
390,1,1.0,0,0.16050476311485784,71,0.0,1,simulated
391,1,1.0,0,0.21650476311487654,72,1.0,1,simulated
392,1,1.0,0,0.6395047631150178,73,1.0,1,simulated
393,1,1.0,0,0.47550476311496304,74,0.0,1,simulated
394,1,1.0,0,0.36950476311492764,75,1.0,1,simulated
395,1,1.0,0,0.38750476311493365,76,0.0,1,simulated
396,1,0.0,0,0.2665047631108858,77,0.0,1,simulated
397,1,0.0,0,0.5615047631109843,78,0.0,1,simulated
398,1,1.0,0,0.25150476311488823,79,1.0,1,simulated
399,1,1.0,0,0.4295047631149477,80,0.0,1,simulated
400,1,1.0,0,0.6215047631150118,81,1.0,1,simulated
401,1,1.0,0,1.116504763115177,82,0.0,1,simulated
402,1,1.0,0,0.1885047631148672,83,0.0,1,simulated
403,1,1.0,0,0.6205047631150115,84,0.0,1,simulated
404,1,1.0,0,0.27250476311489524,85,1.0,1,simulated
405,1,1.0,0,0.46350476311495903,86,0.0,1,simulated
406,1,0.0,0,1.4975047631112968,87,0.0,1,simulated
407,1,1.0,0,0.5295047631149811,88,1.0,1,simulated
408,1,1.0,0,0.2415047631148849,89,0.0,1,simulated
409,1,0.0,0,0.7705047631110541,90,1.0,1,simulated
410,1,1.0,0,0.49350476311496905,91,1.0,1,simulated
411,1,0.0,0,0.24750476311087943,92,0.0,1,simulated
412,1,1.0,0,0.24350476311488556,93,1.0,1,simulated
413,1,1.0,0,0.8815047631150986,94,0.0,1,simulated
414,1,1.0,0,1.017504763115144,95,1.0,1,simulated
415,1,1.0,0,0.5775047631149971,96,1.0,1,simulated
416,1,1.0,0,0.26350476311489224,97,1.0,1,simulated
417,1,1.0,0,0.16950476311486085,98,1.0,1,simulated
418,1,1.0,0,0.412504763114942,99,0.0,1,simulated
419,1,1.0,0,0.2595047631148909,100,0.0,1,simulated
420,1,1.0,0,0.16450476311485918,101,1.0,1,simulated
421,1,0.0,0,1.303504763111232,102,0.0,1,simulated
422,1,1.0,0,0.22850476311488055,103,1.0,1,simulated
423,1,1.0,0,0.2475047631148869,104,1.0,1,simulated
424,1,1.0,0,0.6135047631150091,105,1.0,1,simulated
425,1,1.0,0,0.5075047631149737,106,1.0,1,simulated
426,1,1.0,0,0.22050476311487788,107,1.0,1,simulated
427,1,1.0,0,0.22850476311488055,108,0.0,1,simulated
428,1,1.0,0,0.8065047631150736,109,1.0,1,simulated
429,1,0.0,0,0.9205047631111042,110,0.0,1,simulated
430,1,1.0,0,0.6845047631150328,111,1.0,1,simulated
431,1,1.0,0,0.2825047631148986,112,1.0,1,simulated
432,1,1.0,0,0.1625047631148585,113,0.0,1,simulated
433,1,1.0,0,0.16950476311486085,114,1.0,1,simulated
434,1,1.0,0,0.6055047631150065,115,0.0,1,simulated
435,1,1.0,0,0.6515047631150218,116,1.0,1,simulated
436,1,1.0,0,0.41650476311494333,117,1.0,1,simulated
437,1,1.0,0,0.3985047631149373,118,0.0,1,simulated
438,1,1.0,0,0.5445047631149861,119,0.0,1,simulated
439,1,0.0,0,0.19750476311086274,120,0.0,1,simulated
440,1,0.0,0,0.17650476311085572,121,1.0,1,simulated
441,1,0.0,0,1.0365047631111428,122,0.0,1,simulated
442,1,0.0,0,0.9885047631111269,123,0.0,1,simulated
443,1,0.0,0,0.7755047631110558,124,1.0,1,simulated
444,1,0.0,0,0.2875047631108928,125,0.0,1,simulated
445,1,0.0,0,0.4345047631109419,126,1.0,1,simulated
446,1,1.0,0,0.46950476311496103,127,0.0,1,simulated
447,1,0.0,0,0.5405047631109773,128,1.0,1,simulated
448,1,0.0,0,0.3755047631109222,129,0.0,1,simulated
449,1,1.0,0,0.7115047631150418,130,1.0,1,simulated
450,1,0.0,0,0.28650476311089246,131,0.0,1,simulated
451,1,1.0,0,1.3755047631152635,132,1.0,1,simulated
452,1,0.0,0,0.4375047631109429,133,0.0,1,simulated
453,1,1.0,0,0.4505047631149547,134,0.0,1,simulated
454,1,0.0,0,0.3695047631109202,135,1.0,1,simulated
455,1,0.0,0,0.4785047631109566,136,0.0,1,simulated
456,1,1.0,0,0.39650476311493665,137,1.0,1,simulated
457,1,1.0,0,0.31450476311490927,138,1.0,1,simulated
458,1,1.0,0,1.1595047631151914,139,1.0,1,simulated
459,1,1.0,0,0.31450476311490927,140,1.0,1,simulated
460,1,1.0,0,0.4355047631149497,141,1.0,1,simulated
461,1,1.0,0,0.26150476311489157,142,1.0,1,simulated
462,1,1.0,0,0.18650476311486652,143,1.0,1,simulated
463,1,1.0,0,0.20850476311487387,144,1.0,1,simulated
464,1,0.0,0,2.2115047631115354,145,1.0,1,simulated
465,1,0.0,0,0.36350476311091817,146,0.0,1,simulated
466,1,0.0,0,0.6305047631110073,147,1.0,1,simulated
467,1,1.0,0,0.7835047631150659,148,1.0,1,simulated
468,1,1.0,0,0.3545047631149226,149,1.0,1,simulated
469,1,0.0,0,0.15650476311084904,150,0.0,1,simulated
470,1,1.0,0,0.17650476311486318,151,0.0,1,simulated
471,1,1.0,0,0.7675047631150606,152,1.0,1,simulated
472,1,0.0,0,0.3255047631109055,153,0.0,1,simulated
473,1,1.0,0,1.0605047631151583,154,1.0,1,simulated
474,1,1.0,0,0.2445047631148859,155,0.0,1,simulated
475,1,0.0,0,2.000504763111465,156,0.0,1,simulated
476,1,1.0,0,1.023504763115146,157,1.0,1,simulated
477,1,1.0,0,0.3295047631149143,158,0.0,1,simulated
478,1,0.0,0,0.40350476311093153,159,0.0,1,simulated
479,1,0.0,0,0.24250476311087776,160,0.0,1,simulated
480,1,1.0,1,0.972504763115129,1,1.0,1,simulated
481,1,1.0,1,0.37850476311493064,2,1.0,1,simulated
482,1,1.0,1,0.6435047631150191,3,1.0,1,simulated
483,1,1.0,1,0.448504763114954,4,1.0,1,simulated
484,1,1.0,1,0.4835047631149657,5,1.0,1,simulated
485,1,1.0,1,0.29650476311490326,6,0.0,1,simulated
486,1,0.0,1,0.2875047631108928,7,0.0,1,simulated
487,1,0.0,1,0.24750476311087943,8,0.0,1,simulated
488,1,1.0,1,0.8055047631150732,9,1.0,1,simulated
489,1,0.0,1,1.2655047631112193,10,0.0,1,simulated
490,1,0.0,1,0.6765047631110227,11,1.0,1,simulated
491,1,0.0,1,0.19850476311086307,12,0.0,1,simulated
492,1,1.0,1,0.17050476311486118,13,1.0,1,simulated
493,1,1.0,1,0.3535047631149223,14,1.0,1,simulated
494,1,0.0,1,0.3265047631109058,15,0.0,1,simulated
495,1,0.0,1,0.41350476311093487,16,0.0,1,simulated
496,1,1.0,1,0.5775047631149971,17,1.0,1,simulated
497,1,1.0,1,0.2955047631149029,18,1.0,1,simulated
498,1,1.0,1,0.5485047631149874,19,0.0,1,simulated
499,1,1.0,1,0.6655047631150265,20,1.0,1,simulated
500,1,0.0,1,0.4345047631109419,21,0.0,1,simulated
501,1,1.0,1,0.6045047631150061,22,1.0,1,simulated
502,1,1.0,1,0.34050476311491795,23,0.0,1,simulated
503,1,0.0,1,0.9105047631111008,24,0.0,1,simulated
504,1,0.0,1,1.1315047631111745,25,0.0,1,simulated
505,1,0.0,1,0.22150476311087075,26,0.0,1,simulated
506,1,1.0,1,0.2865047631148999,27,1.0,1,simulated
507,1,1.0,1,0.5395047631149844,28,1.0,1,simulated
508,1,0.0,1,0.611504763111001,29,1.0,1,simulated
509,1,1.0,1,0.3625047631149253,30,1.0,1,simulated
510,1,1.0,1,0.38150476311493164,31,1.0,1,simulated
511,1,0.0,1,0.8385047631110768,32,0.0,1,simulated
512,1,0.0,1,0.8575047631110831,33,1.0,1,simulated
513,1,1.0,1,0.427504763114947,34,1.0,1,simulated
514,1,0.0,1,0.36250476311091784,35,0.0,1,simulated
515,1,1.0,1,0.3535047631149223,36,1.0,1,simulated
516,1,1.0,1,0.9355047631151167,37,1.0,1,simulated
517,1,1.0,1,0.19050476311486786,38,1.0,1,simulated
518,1,1.0,1,0.39950476311493766,39,0.0,1,simulated
519,1,1.0,1,0.2895047631149009,40,1.0,1,simulated
520,1,1.0,1,0.4865047631149667,41,0.0,1,simulated
521,1,1.0,1,0.44650476311495335,42,1.0,1,simulated
522,1,1.0,1,0.49950476311497105,43,1.0,1,simulated
523,1,1.0,1,0.30550476311490626,44,1.0,1,simulated
524,1,1.0,1,0.397504763114937,45,1.0,1,simulated
525,1,1.0,1,0.1945047631148692,46,0.0,1,simulated
526,1,1.0,1,0.4685047631149607,47,0.0,1,simulated
527,1,0.0,1,0.46050476311095057,48,1.0,1,simulated
528,1,0.0,1,0.9275047631111065,49,1.0,1,simulated
529,1,0.0,1,1.0505047631111475,50,0.0,1,simulated
530,1,0.0,1,0.30050476311089713,51,1.0,1,simulated
531,1,0.0,1,0.23950476311087676,52,0.0,1,simulated
532,1,1.0,1,0.3205047631149113,53,1.0,1,simulated
533,1,1.0,1,0.9375047631151173,54,1.0,1,simulated
534,1,1.0,1,0.27550476311489625,55,1.0,1,simulated
535,1,1.0,1,0.7195047631150445,56,1.0,1,simulated
536,1,1.0,1,0.1855047631148662,57,1.0,1,simulated
537,1,1.0,1,0.3235047631149123,58,1.0,1,simulated
538,1,0.0,1,0.5285047631109733,59,0.0,1,simulated
539,1,1.0,1,0.2385047631148839,60,1.0,1,simulated
540,1,1.0,1,0.22350476311487888,61,0.0,1,simulated
541,1,0.0,1,0.3145047631109018,62,1.0,1,simulated
542,1,0.0,1,0.3645047631109185,63,0.0,1,simulated
543,1,1.0,1,0.4865047631149667,64,1.0,1,simulated
544,1,1.0,1,0.35850476311492396,65,1.0,1,simulated
545,1,1.0,1,0.16750476311486018,66,1.0,1,simulated
546,1,1.0,1,0.8135047631150759,67,0.0,1,simulated
547,1,0.0,1,0.1615047631108507,68,0.0,1,simulated
548,1,1.0,1,0.5825047631149988,69,1.0,1,simulated
549,1,1.0,1,0.31450476311490927,70,0.0,1,simulated
550,1,1.0,1,0.49650476311497005,71,0.0,1,simulated
551,1,0.0,1,0.3795047631109235,72,1.0,1,simulated
552,1,0.0,1,0.2465047631108791,73,0.0,1,simulated
553,1,1.0,1,0.5105047631149747,74,1.0,1,simulated
554,1,0.0,1,0.2995047631108968,75,0.0,1,simulated
555,1,0.0,1,0.3295047631109068,76,0.0,1,simulated
556,1,1.0,1,0.2685047631148939,77,1.0,1,simulated
557,1,1.0,1,0.2215047631148782,78,1.0,1,simulated
558,1,1.0,1,0.2685047631148939,79,1.0,1,simulated
559,1,1.0,1,0.21450476311487587,80,1.0,1,simulated
560,1,1.0,1,0.3955047631149363,81,0.0,1,simulated
561,1,1.0,1,0.24050476311488456,82,0.0,1,simulated
562,1,0.0,1,1.1145047631111689,83,1.0,1,simulated
563,1,0.0,1,1.0335047631111418,84,1.0,1,simulated
564,1,0.0,1,0.19150476311086073,85,0.0,1,simulated
565,1,0.0,1,0.34550476311091216,86,1.0,1,simulated
566,1,1.0,1,0.23050476311488122,87,1.0,1,simulated
567,1,1.0,1,0.26050476311489124,88,1.0,1,simulated
568,1,0.0,1,1.0415047631111445,89,0.0,1,simulated
569,1,1.0,1,0.3805047631149313,90,1.0,1,simulated
570,1,0.0,1,0.16350476311085138,91,0.0,1,simulated
571,1,1.0,1,0.439504763114951,92,1.0,1,simulated
572,1,1.0,1,0.5195047631149777,93,1.0,1,simulated
573,1,1.0,1,0.2535047631148889,94,1.0,1,simulated
574,1,1.0,1,0.4865047631149667,95,1.0,1,simulated
575,1,1.0,1,0.2955047631149029,96,1.0,1,simulated
576,1,1.0,1,0.2185047631148772,97,1.0,1,simulated
577,1,1.0,1,0.5355047631149831,98,1.0,1,simulated
578,1,1.0,1,0.31350476311490894,99,1.0,1,simulated
579,1,1.0,1,0.22350476311487888,100,0.0,1,simulated
580,1,0.0,1,0.5035047631109649,101,0.0,1,simulated
581,1,1.0,1,0.5275047631149804,102,1.0,1,simulated
582,1,1.0,1,0.40250476311493866,103,1.0,1,simulated
583,1,1.0,1,0.3835047631149323,104,0.0,1,simulated
584,1,0.0,1,0.30750476311089947,105,0.0,1,simulated
585,1,1.0,1,1.4135047631152762,106,0.0,1,simulated
586,1,1.0,1,0.35250476311492196,107,1.0,1,simulated
587,1,1.0,1,0.6885047631150342,108,1.0,1,simulated
588,1,0.0,1,0.21250476311086774,109,0.0,1,simulated
589,1,1.0,1,0.3565047631149233,110,0.0,1,simulated
590,1,1.0,1,1.3165047631152438,111,1.0,1,simulated
591,1,1.0,1,0.2895047631149009,112,0.0,1,simulated
592,1,1.0,1,0.21450476311487587,113,1.0,1,simulated
593,1,1.0,1,0.43150476311494834,114,0.0,1,simulated
594,1,1.0,1,0.24650476311488656,115,1.0,1,simulated
595,1,1.0,1,0.44050476311495135,116,1.0,1,simulated
596,1,0.0,1,0.69850476311103,117,1.0,1,simulated
597,1,0.0,1,0.3675047631109195,118,1.0,1,simulated
598,1,1.0,1,0.3515047631149216,119,1.0,1,simulated
599,1,1.0,1,0.25750476311489023,120,1.0,1,simulated
600,1,1.0,1,0.6785047631150308,121,1.0,1,simulated
601,1,1.0,1,0.22350476311487888,122,1.0,1,simulated
602,1,1.0,1,0.47250476311496203,123,0.0,1,simulated
603,1,0.0,1,0.15350476311084804,124,0.0,1,simulated
604,1,1.0,1,1.3305047631152485,125,1.0,1,simulated
605,1,1.0,1,0.5145047631149761,126,1.0,1,simulated
606,1,0.0,1,0.2915047631108941,127,1.0,1,simulated
607,1,1.0,1,0.2805047631148979,128,0.0,1,simulated
608,1,1.0,1,0.16650476311485984,129,1.0,1,simulated
609,1,1.0,1,0.46350476311495903,130,1.0,1,simulated
610,1,0.0,1,0.2935047631108948,131,0.0,1,simulated
611,1,1.0,1,0.5015047631149717,132,1.0,1,simulated
612,1,1.0,1,0.2685047631148939,133,1.0,1,simulated
613,1,1.0,1,0.44350476311495235,134,1.0,1,simulated
614,1,1.0,1,0.33150476311491495,135,1.0,1,simulated
615,1,1.0,1,0.6445047631150195,136,1.0,1,simulated
616,1,1.0,1,0.44050476311495135,137,1.0,1,simulated
617,1,1.0,1,0.3395047631149176,138,0.0,1,simulated
618,1,0.0,1,0.9805047631111242,139,1.0,1,simulated
619,1,0.0,1,0.4885047631109599,140,1.0,1,simulated
620,1,0.0,1,0.4435047631109449,141,0.0,1,simulated
621,1,1.0,1,1.718504763115378,142,1.0,1,simulated
622,1,0.0,1,0.30650476311089914,143,0.0,1,simulated
623,1,1.0,1,0.448504763114954,144,1.0,1,simulated
624,1,1.0,1,0.22350476311487888,145,1.0,1,simulated
625,1,0.0,1,0.23950476311087676,146,0.0,1,simulated
626,1,1.0,1,0.3265047631149133,147,0.0,1,simulated
627,1,0.0,1,0.38650476311092585,148,0.0,1,simulated
628,1,1.0,1,0.7605047631150582,149,1.0,1,simulated
629,1,0.0,1,0.4885047631109599,150,0.0,1,simulated
630,1,0.0,1,1.189504763111194,151,0.0,1,simulated
631,1,1.0,1,0.21150476311487487,152,1.0,1,simulated
632,1,1.0,1,0.1625047631148585,153,1.0,1,simulated
633,1,1.0,1,0.2805047631148979,154,0.0,1,simulated
634,1,1.0,1,0.439504763114951,155,1.0,1,simulated
635,1,1.0,1,0.3925047631149353,156,1.0,1,simulated
636,1,1.0,1,0.2125047631148752,157,0.0,1,simulated
637,1,0.0,1,0.29550476311089546,158,1.0,1,simulated
638,1,1.0,1,0.3035047631149056,159,1.0,1,simulated
639,1,0.0,1,0.6525047631110147,160,0.0,1,simulated
640,0,1.0,0,0.7939028979448106,1,0.0,2,simulated
641,0,0.0,0,0.6059028979407404,2,1.0,2,simulated
642,0,0.0,0,0.4519028979406889,3,0.0,2,simulated
643,0,0.0,0,0.7559028979407905,4,0.0,2,simulated
644,0,0.0,0,0.44490289794068655,5,1.0,2,simulated
645,0,1.0,0,0.3599028979446656,6,1.0,2,simulated
646,0,1.0,0,1.0569028979448984,7,1.0,2,simulated
647,0,1.0,0,0.7139028979447839,8,1.0,2,simulated
648,0,0.0,0,0.5229028979407127,9,0.0,2,simulated
649,0,1.0,0,0.9989028979448791,10,1.0,2,simulated
650,0,1.0,0,0.9319028979448567,11,0.0,2,simulated
651,0,0.0,0,0.33290289794064915,12,0.0,2,simulated
652,0,0.0,0,0.6409028979407521,13,1.0,2,simulated
653,0,0.0,0,0.4489028979406879,14,0.0,2,simulated
654,0,0.0,0,0.49190289794070224,15,1.0,2,simulated
655,0,1.0,0,1.037902897944892,16,1.0,2,simulated
656,0,0.0,0,0.8369028979408175,17,0.0,2,simulated
657,0,1.0,0,0.5099028979447158,18,1.0,2,simulated
658,0,1.0,0,0.8149028979448176,19,1.0,2,simulated
659,0,1.0,0,1.815902897945152,20,1.0,2,simulated
660,0,0.0,0,0.3669028979406605,21,0.0,2,simulated
661,0,0.0,0,0.598902897940738,22,0.0,2,simulated
662,0,1.0,0,0.5689028979447355,23,1.0,2,simulated
663,0,1.0,0,0.6979028979447786,24,1.0,2,simulated
664,0,1.0,0,0.3949028979446773,25,0.0,2,simulated
665,0,0.0,0,0.4669028979406939,26,0.0,2,simulated
666,0,0.0,0,3.2479028979416227,27,0.0,2,simulated
667,0,1.0,0,1.0559028979448981,28,1.0,2,simulated
668,0,1.0,0,0.4129028979446833,29,1.0,2,simulated
669,0,1.0,0,0.6819028979447732,30,1.0,2,simulated
670,0,1.0,0,0.3799028979446723,31,1.0,2,simulated
671,0,1.0,0,1.3179028979449856,32,1.0,2,simulated
672,0,1.0,0,1.1559028979449315,33,0.0,2,simulated
673,0,1.0,0,0.6479028979447619,34,1.0,2,simulated
674,0,1.0,0,0.5019028979447131,35,1.0,2,simulated
675,0,1.0,0,0.5609028979447328,36,0.0,2,simulated
676,0,1.0,0,0.4999028979447124,37,0.0,2,simulated
677,0,1.0,0,0.9619028979448667,38,1.0,2,simulated
678,0,1.0,0,0.8149028979448176,39,0.0,2,simulated
679,0,0.0,0,0.5189028979407113,40,0.0,2,simulated
680,0,1.0,0,1.5489028979450628,41,0.0,2,simulated
681,0,1.0,0,0.7619028979447999,42,0.0,2,simulated
682,0,1.0,0,0.6539028979447639,43,1.0,2,simulated
683,0,1.0,0,0.5799028979447391,44,0.0,2,simulated
684,0,0.0,0,0.4499028979406882,45,1.0,2,simulated
685,0,0.0,0,1.0009028979408723,46,0.0,2,simulated
686,0,0.0,0,0.7729028979407961,47,0.0,2,simulated
687,0,0.0,0,0.36890289794066117,48,0.0,2,simulated
688,0,1.0,0,0.6479028979447619,49,1.0,2,simulated
689,0,1.0,0,0.6119028979447498,50,1.0,2,simulated
690,0,1.0,0,0.3889028979446753,51,1.0,2,simulated
691,0,1.0,0,0.6219028979447532,52,0.0,2,simulated
692,0,1.0,0,0.447902897944695,53,1.0,2,simulated
693,0,1.0,0,0.6029028979447468,54,0.0,2,simulated
694,0,0.0,0,0.5259028979407137,55,0.0,2,simulated
695,0,1.0,0,0.4939028979447104,56,1.0,2,simulated
696,0,1.0,0,0.6669028979447682,57,1.0,2,simulated
697,0,0.0,0,0.4019028979406722,58,1.0,2,simulated
698,0,0.0,0,1.3639028979409935,59,0.0,2,simulated
699,0,1.0,0,0.426902897944688,60,1.0,2,simulated
700,0,1.0,0,0.36090289794466596,61,1.0,2,simulated
701,0,1.0,0,0.5359028979447245,62,1.0,2,simulated
702,0,0.0,0,0.5079028979407076,63,0.0,2,simulated
703,0,1.0,0,0.6859028979447745,64,1.0,2,simulated
704,0,0.0,0,0.6809028979407654,65,0.0,2,simulated
705,0,0.0,0,0.4969028979407039,66,0.0,2,simulated
706,0,1.0,0,0.6869028979447749,67,0.0,2,simulated
707,0,1.0,0,0.8509028979448297,68,1.0,2,simulated
708,0,1.0,0,0.6869028979447749,69,0.0,2,simulated
709,0,0.0,0,1.1989028979409384,70,0.0,2,simulated
710,0,0.0,0,0.49490289794070325,71,0.0,2,simulated
711,0,0.0,0,0.39790289794067085,72,0.0,2,simulated
712,0,1.0,0,0.6049028979447475,73,0.0,2,simulated
713,0,1.0,0,0.7319028979447899,74,1.0,2,simulated
714,0,1.0,0,0.6139028979447505,75,1.0,2,simulated
715,0,1.0,0,0.809902897944816,76,1.0,2,simulated
716,0,1.0,0,0.417902897944685,77,1.0,2,simulated
717,0,0.0,0,0.5249028979407133,78,0.0,2,simulated
718,0,1.0,0,0.9309028979448564,79,1.0,2,simulated
719,0,1.0,0,1.2029028979449472,80,1.0,2,simulated
720,0,1.0,0,0.456902897944698,81,1.0,2,simulated
721,0,1.0,0,0.5239028979447204,82,0.0,2,simulated
722,0,0.0,0,0.535902897940717,83,0.0,2,simulated
723,0,1.0,0,0.4969028979447114,84,0.0,2,simulated
724,0,1.0,0,0.6489028979447622,85,0.0,2,simulated
725,0,0.0,0,0.8559028979408239,86,1.0,2,simulated
726,0,0.0,0,0.2989028979406378,87,0.0,2,simulated
727,0,1.0,0,1.0849028979449078,88,0.0,2,simulated
728,0,0.0,0,0.34190289794065215,89,0.0,2,simulated
729,0,0.0,0,0.9049028979408402,90,0.0,2,simulated
730,0,1.0,0,0.7659028979448013,91,1.0,2,simulated
731,0,1.0,0,1.0459028979448948,92,1.0,2,simulated
732,0,1.0,0,0.32290289794465327,93,0.0,2,simulated
733,0,0.0,0,0.6369028979407507,94,1.0,2,simulated
734,0,1.0,0,0.6389028979447589,95,1.0,2,simulated
735,0,1.0,0,1.9189028979451863,96,1.0,2,simulated
736,0,1.0,0,0.3769028979446713,97,1.0,2,simulated
737,0,1.0,0,0.5889028979447422,98,0.0,2,simulated
738,0,0.0,0,0.38590289794066684,99,1.0,2,simulated
739,0,0.0,0,0.6929028979407694,100,1.0,2,simulated
740,0,0.0,0,1.2119028979409427,101,0.0,2,simulated
741,0,0.0,0,0.595902897940737,102,0.0,2,simulated
742,0,1.0,0,0.438902897944692,103,1.0,2,simulated
743,0,1.0,0,0.4949028979447107,104,1.0,2,simulated
744,0,1.0,0,0.6379028979447585,105,1.0,2,simulated
745,0,0.0,0,0.8179028979408112,106,1.0,2,simulated
746,0,1.0,0,0.6949028979447776,107,1.0,2,simulated
747,0,1.0,0,0.6239028979447538,108,0.0,2,simulated
748,0,1.0,0,0.459902897944699,109,1.0,2,simulated
749,0,0.0,0,0.4619028979406922,110,1.0,2,simulated
750,0,0.0,0,1.2959028979409708,111,1.0,2,simulated
751,0,1.0,0,0.5359028979447245,112,1.0,2,simulated
752,0,0.0,0,0.3439028979406528,113,1.0,2,simulated
753,0,0.0,0,0.7909028979408022,114,0.0,2,simulated
754,0,0.0,0,0.5669028979407273,115,0.0,2,simulated
755,0,1.0,0,1.0479028979448954,116,1.0,2,simulated
756,0,1.0,0,0.4069028979446813,117,1.0,2,simulated
757,0,1.0,0,0.41690289794468466,118,1.0,2,simulated
758,0,1.0,0,0.7219028979447866,119,1.0,2,simulated
759,0,1.0,0,0.468902897944702,120,1.0,2,simulated
760,0,0.0,0,0.577902897940731,121,0.0,2,simulated
761,0,0.0,0,0.6099028979407417,122,0.0,2,simulated
762,0,1.0,0,0.5309028979447228,123,1.0,2,simulated
763,0,0.0,0,0.535902897940717,124,1.0,2,simulated
764,0,0.0,0,0.4399028979406849,125,0.0,2,simulated
765,0,1.0,0,0.34590289794466095,126,0.0,2,simulated
766,0,0.0,0,0.6759028979407637,127,0.0,2,simulated
767,0,1.0,0,0.794902897944811,128,1.0,2,simulated
768,0,0.0,0,0.5589028979407247,129,1.0,2,simulated
769,0,1.0,0,0.9259028979448547,130,1.0,2,simulated
770,0,0.0,0,0.508902897940708,131,0.0,2,simulated
771,0,1.0,0,0.4739028979447037,132,0.0,2,simulated
772,0,0.0,0,0.4699028979406949,133,0.0,2,simulated
773,0,0.0,0,0.48290289794069924,134,0.0,2,simulated
774,0,0.0,0,0.7559028979407905,135,0.0,2,simulated
775,0,1.0,0,0.3659028979446676,136,1.0,2,simulated
776,0,1.0,0,0.5329028979447235,137,0.0,2,simulated
777,0,0.0,0,0.6699028979407617,138,0.0,2,simulated
778,0,1.0,0,0.5319028979447231,139,1.0,2,simulated
779,0,1.0,0,0.8959028979448447,140,0.0,2,simulated
780,0,0.0,0,0.3529028979406558,141,1.0,2,simulated
781,0,0.0,0,1.2779028979409648,142,0.0,2,simulated
782,0,0.0,0,0.6559028979407571,143,1.0,2,simulated
783,0,1.0,0,0.35490289794466395,144,0.0,2,simulated
784,0,0.0,0,0.4589028979406912,145,0.0,2,simulated
785,0,1.0,0,0.8209028979448196,146,1.0,2,simulated
786,0,1.0,0,1.0849028979449078,147,1.0,2,simulated
787,0,1.0,0,0.5729028979447368,148,1.0,2,simulated
788,0,1.0,0,0.4039028979446803,149,0.0,2,simulated
789,0,0.0,0,0.4839028979406996,150,0.0,2,simulated
790,0,0.0,0,1.6479028979410884,151,1.0,2,simulated
791,0,0.0,0,0.6519028979407557,152,1.0,2,simulated
792,0,0.0,0,1.0459028979408873,153,0.0,2,simulated
793,0,1.0,0,1.0579028979448988,154,1.0,2,simulated
794,0,0.0,0,0.5399028979407183,155,0.0,2,simulated
795,0,0.0,0,0.3999028979406715,156,0.0,2,simulated
796,0,1.0,0,0.6039028979447472,157,0.0,2,simulated
797,0,1.0,0,0.7409028979447929,158,1.0,2,simulated
798,0,1.0,0,1.2139028979449509,159,1.0,2,simulated
799,0,1.0,0,0.34890289794466195,160,0.0,2,simulated
800,0,1.0,1,0.7769028979448049,1,1.0,2,simulated
801,0,1.0,1,0.9969028979448784,2,1.0,2,simulated
802,0,0.0,1,0.3289028979406478,3,0.0,2,simulated
803,0,1.0,1,2.0539028979452314,4,1.0,2,simulated
804,0,1.0,1,2.0509028979452304,5,1.0,2,simulated
805,0,1.0,1,1.3529028979449973,6,1.0,2,simulated
806,0,1.0,1,0.4709028979447027,7,1.0,2,simulated
807,0,1.0,1,0.9909028979448764,8,1.0,2,simulated
808,0,1.0,1,1.0039028979448807,9,1.0,2,simulated
809,0,1.0,1,0.908902897944849,10,0.0,2,simulated
810,0,0.0,1,0.571902897940729,11,0.0,2,simulated
811,0,1.0,1,0.4619028979446997,12,1.0,2,simulated
812,0,0.0,1,0.8999028979408386,13,0.0,2,simulated
813,0,1.0,1,0.7969028979448116,14,0.0,2,simulated
814,0,1.0,1,0.800902897944813,15,1.0,2,simulated
815,0,1.0,1,0.4039028979446803,16,1.0,2,simulated
816,0,1.0,1,0.5689028979447355,17,1.0,2,simulated
817,0,0.0,1,1.098902897940905,18,0.0,2,simulated
818,0,1.0,1,0.5419028979447265,19,0.0,2,simulated
819,0,1.0,1,0.5969028979447448,20,1.0,2,simulated
820,0,1.0,1,0.9069028979448484,21,1.0,2,simulated
821,0,1.0,1,0.3329028979446566,22,0.0,2,simulated
822,0,1.0,1,0.420902897944686,23,1.0,2,simulated
823,0,1.0,1,0.5569028979447315,24,1.0,2,simulated
824,0,0.0,1,0.5559028979407237,25,1.0,2,simulated
825,0,1.0,1,0.7419028979447932,26,1.0,2,simulated
826,0,1.0,1,1.1659028979449348,27,1.0,2,simulated
827,0,0.0,1,0.5469028979407207,28,0.0,2,simulated
828,0,1.0,1,0.6809028979447729,29,0.0,2,simulated
829,0,1.0,1,0.932902897944857,30,0.0,2,simulated
830,0,1.0,1,0.6859028979447745,31,0.0,2,simulated
831,0,0.0,1,1.0339028979408833,32,0.0,2,simulated
832,0,1.0,1,0.7669028979448016,33,0.0,2,simulated
833,0,0.0,1,1.20390289794094,34,0.0,2,simulated
834,0,0.0,1,0.4559028979406902,35,0.0,2,simulated
835,0,1.0,1,0.5909028979447428,36,0.0,2,simulated
836,0,1.0,1,0.5659028979447345,37,1.0,2,simulated
837,0,0.0,1,0.3609028979406585,38,0.0,2,simulated
838,0,1.0,1,1.6189028979450861,39,1.0,2,simulated
839,0,1.0,1,0.3949028979446773,40,1.0,2,simulated
840,0,1.0,1,0.5279028979447218,41,1.0,2,simulated
841,0,0.0,1,0.3409028979406518,42,1.0,2,simulated
842,0,0.0,1,0.5049028979407066,43,0.0,2,simulated
843,0,1.0,1,0.40190289794467965,44,0.0,2,simulated
844,0,0.0,1,1.718902897941112,45,0.0,2,simulated
845,0,0.0,1,0.4429028979406859,46,1.0,2,simulated
846,0,1.0,1,0.38690289794467464,47,0.0,2,simulated
847,0,1.0,1,0.387902897944675,48,1.0,2,simulated
848,0,1.0,1,0.85190289794483,49,1.0,2,simulated
849,0,1.0,1,0.6829028979447735,50,1.0,2,simulated
850,0,1.0,1,0.5969028979447448,51,1.0,2,simulated
851,0,0.0,1,1.505902897941041,52,0.0,2,simulated
852,0,1.0,1,0.7169028979447849,53,1.0,2,simulated
853,0,1.0,1,0.44890289794469534,54,1.0,2,simulated
854,0,1.0,1,0.6309028979447562,55,1.0,2,simulated
855,0,1.0,1,0.42290289794468666,56,1.0,2,simulated
856,0,1.0,1,0.4649028979447007,57,0.0,2,simulated
857,0,1.0,1,0.3499028979446623,58,1.0,2,simulated
858,0,1.0,1,1.1159028979449181,59,1.0,2,simulated
859,0,0.0,1,1.3719028979409962,60,0.0,2,simulated
860,0,1.0,1,0.79190289794481,61,0.0,2,simulated
861,0,1.0,1,0.803902897944814,62,0.0,2,simulated
862,0,0.0,1,0.5999028979407384,63,0.0,2,simulated
863,0,1.0,1,0.41690289794468466,64,0.0,2,simulated
864,0,1.0,1,0.36390289794466696,65,1.0,2,simulated
865,0,1.0,1,0.5019028979447131,66,1.0,2,simulated
866,0,1.0,1,0.7619028979447999,67,1.0,2,simulated
867,0,1.0,1,1.1089028979449158,68,1.0,2,simulated
868,0,1.0,1,0.6269028979447548,69,1.0,2,simulated
869,0,0.0,1,0.9219028979408459,70,0.0,2,simulated
870,0,1.0,1,0.3739028979446703,71,1.0,2,simulated
871,0,1.0,1,0.38190289794467297,72,1.0,2,simulated
872,0,0.0,1,1.1209028979409124,73,0.0,2,simulated
873,0,0.0,1,0.54490289794072,74,0.0,2,simulated
874,0,1.0,1,0.6759028979447712,75,1.0,2,simulated
875,0,1.0,1,0.6129028979447502,76,1.0,2,simulated
876,0,1.0,1,0.36390289794466696,77,1.0,2,simulated
877,0,1.0,1,0.41090289794468265,78,0.0,2,simulated
878,0,0.0,1,1.3599028979409922,79,0.0,2,simulated
879,0,0.0,1,0.47190289794069556,80,0.0,2,simulated
880,0,0.0,1,1.4509028979410226,81,1.0,2,simulated
881,0,0.0,1,0.8639028979408265,82,0.0,2,simulated
882,0,0.0,1,0.8479028979408212,83,0.0,2,simulated
883,0,0.0,1,1.6399028979410857,84,1.0,2,simulated
884,0,1.0,1,0.9859028979448747,85,1.0,2,simulated
885,0,0.0,1,1.9019028979411732,86,1.0,2,simulated
886,0,0.0,1,0.7399028979407851,87,1.0,2,simulated
887,0,0.0,1,0.7479028979407878,88,1.0,2,simulated
888,0,1.0,1,1.1419028979449268,89,1.0,2,simulated
889,0,0.0,1,1.0709028979408957,90,0.0,2,simulated
890,0,1.0,1,0.5549028979447308,91,1.0,2,simulated
891,0,1.0,1,0.5019028979447131,92,1.0,2,simulated
892,0,1.0,1,0.7629028979448003,93,1.0,2,simulated
893,0,0.0,1,1.2079028979409414,94,1.0,2,simulated
894,0,1.0,1,0.4099028979446823,95,1.0,2,simulated
895,0,0.0,1,0.4529028979406892,96,0.0,2,simulated
896,0,1.0,1,0.5729028979447368,97,0.0,2,simulated
897,0,1.0,1,0.5599028979447325,98,0.0,2,simulated
898,0,0.0,1,0.42490289794067987,99,0.0,2,simulated
899,0,1.0,1,0.5279028979447218,100,0.0,2,simulated
900,0,0.0,1,0.7239028979407798,101,0.0,2,simulated
901,0,1.0,1,0.39890289794467865,102,1.0,2,simulated
902,0,1.0,1,0.9039028979448473,103,1.0,2,simulated
903,0,1.0,1,0.37190289794466963,104,1.0,2,simulated
904,0,1.0,1,0.5269028979447214,105,0.0,2,simulated
905,0,0.0,1,1.4069028979410079,106,0.0,2,simulated
906,0,0.0,1,0.5279028979407143,107,0.0,2,simulated
907,0,0.0,1,0.5409028979407187,108,0.0,2,simulated
908,0,1.0,1,1.0239028979448874,109,1.0,2,simulated
909,0,0.0,1,0.9679028979408613,110,0.0,2,simulated
910,0,0.0,1,0.46590289794069356,111,1.0,2,simulated
911,0,0.0,1,0.7759028979407971,112,1.0,2,simulated
912,0,0.0,1,0.6739028979407631,113,0.0,2,simulated
913,0,1.0,1,0.6249028979447542,114,0.0,2,simulated
914,0,1.0,1,1.6319028979450905,115,1.0,2,simulated
915,0,1.0,1,0.6779028979447719,116,1.0,2,simulated
916,0,0.0,1,0.9569028979408576,117,0.0,2,simulated
917,0,1.0,1,0.42190289794468633,118,0.0,2,simulated
918,0,1.0,1,0.9079028979448487,119,0.0,2,simulated
919,0,1.0,1,0.32590289794465427,120,1.0,2,simulated
920,0,1.0,1,0.5329028979447235,121,1.0,2,simulated
921,0,0.0,1,0.48590289794070024,122,0.0,2,simulated
922,0,1.0,1,0.3569028979446646,123,1.0,2,simulated
923,0,0.0,1,0.7649028979407935,124,0.0,2,simulated
924,0,1.0,1,0.387902897944675,125,1.0,2,simulated
925,0,1.0,1,0.9929028979448771,126,1.0,2,simulated
926,0,1.0,1,0.7239028979447872,127,0.0,2,simulated
927,0,1.0,1,0.3949028979446773,128,1.0,2,simulated
928,0,1.0,1,1.4229028979450207,129,0.0,2,simulated
929,0,1.0,1,0.7179028979447852,130,0.0,2,simulated
930,0,0.0,1,0.7999028979408052,131,1.0,2,simulated
931,0,0.0,1,0.9129028979408429,132,0.0,2,simulated
932,0,1.0,1,0.41690289794468466,133,1.0,2,simulated
933,0,0.0,1,0.4529028979406892,134,0.0,2,simulated
934,0,1.0,1,0.5019028979447131,135,0.0,2,simulated
935,0,1.0,1,0.36690289794466796,136,1.0,2,simulated
936,0,1.0,1,0.36090289794466596,137,1.0,2,simulated
937,0,0.0,1,0.3409028979406518,138,0.0,2,simulated
938,0,1.0,1,0.4039028979446803,139,1.0,2,simulated
939,0,1.0,1,0.5899028979447425,140,1.0,2,simulated
940,0,0.0,1,1.2719028979409628,141,0.0,2,simulated
941,0,1.0,1,0.38490289794467397,142,0.0,2,simulated
942,0,0.0,1,1.242902897940953,143,0.0,2,simulated
943,0,0.0,1,0.7739028979407965,144,0.0,2,simulated
944,0,1.0,1,0.5069028979447148,145,0.0,2,simulated
945,0,1.0,1,1.0829028979449071,146,0.0,2,simulated
946,0,0.0,1,0.8169028979408108,147,0.0,2,simulated
947,0,0.0,1,0.7579028979407911,148,0.0,2,simulated
948,0,0.0,1,0.35990289794065816,149,1.0,2,simulated
949,0,1.0,1,0.6039028979447472,150,1.0,2,simulated
950,0,1.0,1,0.3479028979446616,151,1.0,2,simulated
951,0,1.0,1,0.6589028979447655,152,1.0,2,simulated
952,0,0.0,1,0.36790289794066083,153,1.0,2,simulated
953,0,0.0,1,0.9459028979408539,154,0.0,2,simulated
954,0,1.0,1,0.6669028979447682,155,1.0,2,simulated
955,0,1.0,1,0.8719028979448367,156,1.0,2,simulated
956,0,1.0,1,0.4039028979446803,157,1.0,2,simulated
957,0,1.0,1,0.5019028979447131,158,0.0,2,simulated
958,0,0.0,1,0.8549028979408235,159,0.0,2,simulated
959,0,1.0,1,0.6469028979447615,160,0.0,2,simulated
960,1,1.0,0,1.294776139231789,1,0.0,2,simulated
961,1,0.0,0,1.0307761392276933,2,1.0,2,simulated
962,1,0.0,0,0.2407761392274295,3,1.0,2,simulated
963,1,0.0,0,0.22777613922742515,4,0.0,2,simulated
964,1,0.0,0,0.6517761392275667,5,0.0,2,simulated
965,1,1.0,0,0.22677613923143228,6,1.0,2,simulated
966,1,1.0,0,0.3407761392314703,7,1.0,2,simulated
967,1,1.0,0,0.23777613923143595,8,0.0,2,simulated
968,1,1.0,0,0.5987761392315565,9,0.0,2,simulated
969,1,1.0,0,0.30577613923145863,10,1.0,2,simulated
970,1,1.0,0,0.3987761392314897,11,1.0,2,simulated
971,1,1.0,0,0.5177761392315294,12,1.0,2,simulated
972,1,0.0,0,0.41077613922748624,13,0.0,2,simulated
973,1,1.0,0,0.20277613923142426,14,1.0,2,simulated
974,1,1.0,0,0.36977613923148,15,0.0,2,simulated
975,1,0.0,0,0.2087761392274188,16,0.0,2,simulated
976,1,0.0,0,0.4147761392274876,17,0.0,2,simulated
977,1,1.0,0,0.8077761392316263,18,1.0,2,simulated
978,1,1.0,0,0.29777613923145596,19,0.0,2,simulated
979,1,0.0,0,1.0907761392277133,20,0.0,2,simulated
980,1,0.0,0,1.1787761392277427,21,0.0,2,simulated
981,1,0.0,0,0.41377613922748724,22,0.0,2,simulated
982,1,1.0,0,0.9067761392316593,23,1.0,2,simulated
983,1,1.0,0,0.6467761392315725,24,1.0,2,simulated
984,1,1.0,0,0.25077613923144026,25,0.0,2,simulated
985,1,0.0,0,0.31077613922745284,26,1.0,2,simulated
986,1,1.0,0,0.35377613923147466,27,0.0,2,simulated
987,1,0.0,0,0.15377613922740044,28,1.0,2,simulated
988,1,1.0,0,0.41477613923149503,29,0.0,2,simulated
989,1,1.0,0,0.36977613923148,30,1.0,2,simulated
990,1,1.0,0,0.47477613923151507,31,1.0,2,simulated
991,1,0.0,0,1.3597761392278032,32,1.0,2,simulated
992,1,0.0,0,0.17077613922740612,33,1.0,2,simulated
993,1,0.0,0,0.40277613922748357,34,0.0,2,simulated
994,1,0.0,0,0.2677761392274385,35,1.0,2,simulated
995,1,0.0,0,0.4797761392275093,36,0.0,2,simulated
996,1,1.0,0,0.36277613923147767,37,1.0,2,simulated
997,1,1.0,0,1.1047761392317255,38,0.0,2,simulated
998,1,0.0,0,0.5227761392275236,39,0.0,2,simulated
999,1,1.0,0,0.5557761392315421,40,0.0,2,simulated
1000,1,0.0,0,0.6277761392275587,41,0.0,2,simulated
1001,1,1.0,0,0.9637761392316784,42,1.0,2,simulated
1002,1,1.0,0,0.2657761392314453,43,0.0,2,simulated
1003,1,0.0,0,0.3237761392274572,44,0.0,2,simulated
1004,1,0.0,0,0.5877761392275453,45,0.0,2,simulated
1005,1,1.0,0,0.4437761392315047,46,0.0,2,simulated
1006,1,0.0,0,0.31077613922745284,47,1.0,2,simulated
1007,1,1.0,0,0.2517761392314406,48,0.0,2,simulated
1008,1,0.0,0,0.3297761392274592,49,0.0,2,simulated
1009,1,1.0,0,0.32377613923146464,50,1.0,2,simulated
1010,1,1.0,0,0.4107761392314937,51,1.0,2,simulated
1011,1,1.0,0,0.5257761392315321,52,0.0,2,simulated
1012,1,0.0,0,0.32577613922745785,53,1.0,2,simulated
1013,1,0.0,0,0.24177613922742983,54,1.0,2,simulated
1014,1,0.0,0,0.2677761392274385,55,0.0,2,simulated
1015,1,0.0,0,0.2807761392274428,56,1.0,2,simulated
1016,1,0.0,0,0.18977613922741246,57,0.0,2,simulated
1017,1,1.0,0,0.4487761392315064,58,1.0,2,simulated
1018,1,1.0,0,0.33577613923146865,59,0.0,2,simulated
1019,1,1.0,0,0.5577761392315428,60,1.0,2,simulated
1020,1,0.0,0,0.36377613922747054,61,0.0,2,simulated
1021,1,0.0,0,0.3247761392274575,62,1.0,2,simulated
1022,1,1.0,0,0.24077613923143695,63,1.0,2,simulated
1023,1,1.0,0,0.9587761392316767,64,1.0,2,simulated
1024,1,1.0,0,0.38877613923148635,65,1.0,2,simulated
1025,1,0.0,0,0.562776139227537,66,1.0,2,simulated
1026,1,0.0,0,0.2057761392274178,67,0.0,2,simulated
1027,1,0.0,0,0.2057761392274178,68,0.0,2,simulated
1028,1,1.0,0,0.1977761392314226,69,0.0,2,simulated
1029,1,0.0,0,0.29377613922744716,70,0.0,2,simulated
1030,1,1.0,0,0.6497761392315735,71,1.0,2,simulated
1031,1,1.0,0,0.8357761392316356,72,0.0,2,simulated
1032,1,1.0,0,0.7127761392315946,73,1.0,2,simulated
1033,1,1.0,0,0.7217761392315976,74,1.0,2,simulated
1034,1,1.0,0,0.7717761392316143,75,0.0,2,simulated
1035,1,0.0,0,0.4387761392274956,76,0.0,2,simulated
1036,1,1.0,0,0.2927761392314543,77,1.0,2,simulated
1037,1,1.0,0,0.44777613923150605,78,1.0,2,simulated
1038,1,0.0,0,0.25777613922743514,79,0.0,2,simulated
1039,1,1.0,0,0.2837761392314513,80,0.0,2,simulated
1040,1,0.0,0,0.5607761392275363,81,0.0,2,simulated
1041,1,1.0,0,0.46577613923151207,82,1.0,2,simulated
1042,1,1.0,0,0.25377613923144127,83,0.0,2,simulated
1043,1,1.0,0,0.7187761392315966,84,1.0,2,simulated
1044,1,1.0,0,0.29977613923145663,85,1.0,2,simulated
1045,1,1.0,0,0.6707761392315805,86,1.0,2,simulated
1046,1,0.0,0,0.18277613922741012,87,1.0,2,simulated
1047,1,1.0,0,0.47977613923151674,88,1.0,2,simulated
1048,1,0.0,0,0.36977613922747254,89,0.0,2,simulated
1049,1,1.0,0,0.5587761392315431,90,0.0,2,simulated
1050,1,1.0,0,0.37077613923148034,91,0.0,2,simulated
1051,1,1.0,0,0.9547761392316754,92,1.0,2,simulated
1052,1,1.0,0,0.7117761392315942,93,1.0,2,simulated
1053,1,1.0,0,0.3077761392314593,94,1.0,2,simulated
1054,1,0.0,0,0.4857761392275113,95,0.0,2,simulated
1055,1,1.0,0,0.2727761392314476,96,1.0,2,simulated
1056,1,0.0,0,0.39977613922748256,97,0.0,2,simulated
1057,1,1.0,0,0.36177613923147733,98,1.0,2,simulated
1058,1,1.0,0,0.348776139231473,99,1.0,2,simulated
1059,1,1.0,0,0.28277613923145095,100,1.0,2,simulated
1060,1,1.0,0,0.2037761392314246,101,1.0,2,simulated
1061,1,1.0,0,0.3317761392314673,102,1.0,2,simulated
1062,1,1.0,0,0.21677613923142894,103,0.0,2,simulated
1063,1,1.0,0,0.6297761392315668,104,1.0,2,simulated
1064,1,0.0,0,0.24277613922743016,105,0.0,2,simulated
1065,1,1.0,0,0.4077761392314927,106,1.0,2,simulated
1066,1,1.0,0,1.1787761392317502,107,0.0,2,simulated
1067,1,1.0,0,1.0027761392316914,108,1.0,2,simulated
1068,1,1.0,0,0.8827761392316513,109,1.0,2,simulated
1069,1,1.0,0,0.23577613923143528,110,0.0,2,simulated
1070,1,0.0,0,0.6127761392275537,111,0.0,2,simulated
1071,1,0.0,0,0.29077613922744616,112,0.0,2,simulated
1072,1,0.0,0,0.7517761392276001,113,1.0,2,simulated
1073,1,1.0,0,0.38577613923148535,114,1.0,2,simulated
1074,1,0.0,0,0.26677613922743815,115,0.0,2,simulated
1075,1,1.0,0,0.6497761392315735,116,0.0,2,simulated
1076,1,0.0,0,0.5317761392275266,117,0.0,2,simulated
1077,1,1.0,0,1.1397761392317372,118,0.0,2,simulated
1078,1,0.0,0,0.4397761392274959,119,1.0,2,simulated
1079,1,0.0,0,0.3767761392274749,120,0.0,2,simulated
1080,1,1.0,0,0.8387761392316366,121,1.0,2,simulated
1081,1,1.0,0,0.33977613923147,122,1.0,2,simulated
1082,1,0.0,0,0.6747761392275744,123,0.0,2,simulated
1083,1,1.0,0,1.2687761392317802,124,0.0,2,simulated
1084,1,1.0,0,0.2217761392314306,125,1.0,2,simulated
1085,1,1.0,0,0.2307761392314336,126,1.0,2,simulated
1086,1,1.0,0,0.5707761392315471,127,0.0,2,simulated
1087,1,0.0,0,0.22677613922742482,128,1.0,2,simulated
1088,1,0.0,0,0.23677613922742816,129,0.0,2,simulated
1089,1,0.0,0,1.9337761392279949,130,0.0,2,simulated
1090,1,0.0,0,0.2857761392274445,131,0.0,2,simulated
1091,1,1.0,0,0.5757761392315488,132,1.0,2,simulated
1092,1,1.0,0,0.21777613923142927,133,1.0,2,simulated
1093,1,1.0,0,0.7207761392315972,134,1.0,2,simulated
1094,1,1.0,0,0.2637761392314446,135,1.0,2,simulated
1095,1,1.0,0,0.22877613923143295,136,0.0,2,simulated
1096,1,0.0,0,1.1867761392277454,137,1.0,2,simulated
1097,1,0.0,0,0.5497761392275327,138,1.0,2,simulated
1098,1,0.0,0,0.24277613922743016,139,1.0,2,simulated
1099,1,1.0,0,0.7797761392316169,140,0.0,2,simulated
1100,1,0.0,0,0.26077613922743614,141,0.0,2,simulated
1101,1,0.0,0,0.4957761392275146,142,1.0,2,simulated
1102,1,0.0,0,0.3007761392274495,143,0.0,2,simulated
1103,1,0.0,0,0.22977613922742582,144,1.0,2,simulated
1104,1,1.0,0,0.36577613923147867,145,1.0,2,simulated
1105,1,1.0,0,0.24577613923143862,146,0.0,2,simulated
1106,1,1.0,0,0.5467761392315391,147,1.0,2,simulated
1107,1,1.0,0,0.6657761392315789,148,0.0,2,simulated
1108,1,0.0,0,0.5817761392275433,149,1.0,2,simulated
1109,1,0.0,0,0.44077613922749626,150,0.0,2,simulated
1110,1,0.0,0,0.7617761392276035,151,1.0,2,simulated
1111,1,0.0,0,0.4797761392275093,152,1.0,2,simulated
1112,1,0.0,0,1.0167761392276886,153,0.0,2,simulated
1113,1,0.0,0,0.18977613922741246,154,0.0,2,simulated
1114,1,1.0,0,0.5347761392315351,155,1.0,2,simulated
1115,1,1.0,0,0.4457761392315054,156,1.0,2,simulated
1116,1,1.0,0,0.19977613923142326,157,1.0,2,simulated
1117,1,1.0,0,0.18477613923141825,158,1.0,2,simulated
1118,1,0.0,0,0.22677613922742482,159,0.0,2,simulated
1119,1,1.0,0,0.29777613923145596,160,1.0,2,simulated
1120,1,1.0,1,1.348776139231807,1,1.0,2,simulated
1121,1,1.0,1,0.4337761392315014,2,1.0,2,simulated
1122,1,0.0,1,0.3327761392274602,3,0.0,2,simulated
1123,1,1.0,1,0.44777613923150605,4,0.0,2,simulated
1124,1,1.0,1,0.4757761392315154,5,1.0,2,simulated
1125,1,1.0,1,0.33577613923146865,6,1.0,2,simulated
1126,1,1.0,1,0.2157761392314286,7,1.0,2,simulated
1127,1,1.0,1,0.348776139231473,8,1.0,2,simulated
1128,1,1.0,1,0.6237761392315648,9,1.0,2,simulated
1129,1,1.0,1,0.39477613923148835,10,1.0,2,simulated
1130,1,1.0,1,0.25577613923144193,11,1.0,2,simulated
1131,1,1.0,1,0.330776139231467,12,1.0,2,simulated
1132,1,0.0,1,0.2587761392274355,13,0.0,2,simulated
1133,1,1.0,1,0.4167761392314957,14,0.0,2,simulated
1134,1,0.0,1,0.5607761392275363,15,1.0,2,simulated
1135,1,0.0,1,0.3947761392274809,16,1.0,2,simulated
1136,1,0.0,1,0.28477613922744416,17,0.0,2,simulated
1137,1,1.0,1,0.5637761392315448,18,1.0,2,simulated
1138,1,1.0,1,0.2307761392314336,19,1.0,2,simulated
1139,1,1.0,1,0.3987761392314897,20,1.0,2,simulated
1140,1,1.0,1,0.24877613923143962,21,1.0,2,simulated
1141,1,1.0,1,0.375776139231482,22,1.0,2,simulated
1142,1,1.0,1,0.5287761392315331,23,1.0,2,simulated
1143,1,1.0,1,0.7577761392316096,24,0.0,2,simulated
1144,1,1.0,1,0.2607761392314436,25,1.0,2,simulated
1145,1,0.0,1,0.8637761392276375,26,1.0,2,simulated
1146,1,1.0,1,0.7017761392315909,27,1.0,2,simulated
1147,1,1.0,1,0.4527761392315077,28,1.0,2,simulated
1148,1,0.0,1,0.42277613922749024,29,1.0,2,simulated
1149,1,0.0,1,0.39677613922748156,30,1.0,2,simulated
1150,1,1.0,1,0.5367761392315358,31,1.0,2,simulated
1151,1,1.0,1,0.5257761392315321,32,1.0,2,simulated
1152,1,0.0,1,0.17677613922740812,33,0.0,2,simulated
1153,1,1.0,1,0.18577613923141859,34,1.0,2,simulated
1154,1,1.0,1,0.23577613923143528,35,0.0,2,simulated
1155,1,1.0,1,0.9707761392316807,36,0.0,2,simulated
1156,1,0.0,1,0.2617761392274365,37,1.0,2,simulated
1157,1,0.0,1,0.7287761392275924,38,0.0,2,simulated
1158,1,0.0,1,0.7227761392275904,39,1.0,2,simulated
1159,1,1.0,1,0.3107761392314603,40,0.0,2,simulated
1160,1,0.0,1,0.1997761392274158,41,1.0,2,simulated
1161,1,0.0,1,0.4927761392275136,42,0.0,2,simulated
1162,1,1.0,1,0.6707761392315805,43,0.0,2,simulated
1163,1,1.0,1,0.32977613923146665,44,1.0,2,simulated
1164,1,1.0,1,0.23177613923143395,45,1.0,2,simulated
1165,1,1.0,1,1.2237761392317652,46,1.0,2,simulated
1166,1,0.0,1,0.7517761392276001,47,0.0,2,simulated
1167,1,1.0,1,0.2747761392314483,48,0.0,2,simulated
1168,1,0.0,1,0.5287761392275256,49,1.0,2,simulated
1169,1,0.0,1,0.1967761392274148,50,1.0,2,simulated
1170,1,0.0,1,0.2777761392274418,51,1.0,2,simulated
1171,1,0.0,1,0.20177613922741647,52,1.0,2,simulated
1172,1,0.0,1,0.43777613922749525,53,0.0,2,simulated
1173,1,1.0,1,0.20877613923142627,54,1.0,2,simulated
1174,1,0.0,1,0.2707761392274395,55,0.0,2,simulated
1175,1,1.0,1,0.40377613923149136,56,1.0,2,simulated
1176,1,1.0,1,0.35377613923147466,57,1.0,2,simulated
1177,1,1.0,1,0.27077613923144694,58,1.0,2,simulated
1178,1,0.0,1,0.616776139227555,59,0.0,2,simulated
1179,1,1.0,1,0.3437761392314713,60,1.0,2,simulated
1180,1,1.0,1,0.4927761392315211,61,1.0,2,simulated
1181,1,1.0,1,0.5497761392315401,62,0.0,2,simulated
1182,1,0.0,1,1.4297761392278265,63,1.0,2,simulated
1183,1,0.0,1,0.2467761392274315,64,0.0,2,simulated
1184,1,1.0,1,0.8587761392316433,65,1.0,2,simulated
1185,1,1.0,1,0.5617761392315441,66,1.0,2,simulated
1186,1,1.0,1,0.30077613923145696,67,1.0,2,simulated
1187,1,0.0,1,0.523776139227524,68,0.0,2,simulated
1188,1,1.0,1,0.3347761392314683,69,1.0,2,simulated
1189,1,1.0,1,0.4577761392315094,70,1.0,2,simulated
1190,1,1.0,1,1.1387761392317368,71,1.0,2,simulated
1191,1,1.0,1,0.378776139231483,72,0.0,2,simulated
1192,1,0.0,1,0.6857761392275781,73,0.0,2,simulated
1193,1,1.0,1,0.8917761392316543,74,1.0,2,simulated
1194,1,1.0,1,0.41177613923149403,75,1.0,2,simulated
1195,1,1.0,1,0.5327761392315344,76,1.0,2,simulated
1196,1,1.0,1,0.2687761392314463,77,0.0,2,simulated
1197,1,1.0,1,0.6157761392315622,78,0.0,2,simulated
1198,1,0.0,1,1.0727761392277073,79,0.0,2,simulated
1199,1,1.0,1,0.3047761392314583,80,1.0,2,simulated
1200,1,1.0,1,0.3957761392314887,81,0.0,2,simulated
1201,1,0.0,1,0.35877613922746887,82,1.0,2,simulated
1202,1,0.0,1,0.4627761392275036,83,0.0,2,simulated
1203,1,0.0,1,0.7167761392275884,84,0.0,2,simulated
1204,1,0.0,1,0.3567761392274682,85,0.0,2,simulated
1205,1,1.0,1,0.2877761392314526,86,1.0,2,simulated
1206,1,1.0,1,0.36477613923147834,87,1.0,2,simulated
1207,1,1.0,1,0.44477613923150505,88,1.0,2,simulated
1208,1,1.0,1,0.17777613923141591,89,1.0,2,simulated
1209,1,0.0,1,0.628776139227559,90,0.0,2,simulated
1210,1,1.0,1,0.26477613923144494,91,1.0,2,simulated
1211,1,1.0,1,0.2817761392314506,92,1.0,2,simulated
1212,1,1.0,1,0.37977613923148335,93,1.0,2,simulated
1213,1,1.0,1,0.7927761392316213,94,1.0,2,simulated
1214,1,1.0,1,1.0087761392316934,95,0.0,2,simulated
1215,1,0.0,1,0.7447761392275978,96,0.0,2,simulated
1216,1,1.0,1,0.4967761392315224,97,0.0,2,simulated
1217,1,0.0,1,1.2557761392277684,98,0.0,2,simulated
1218,1,0.0,1,0.5017761392275166,99,0.0,2,simulated
1219,1,1.0,1,1.0037761392316917,100,1.0,2,simulated
1220,1,0.0,1,0.7997761392276161,101,0.0,2,simulated
1221,1,0.0,1,0.22777613922742515,102,0.0,2,simulated
1222,1,0.0,1,0.3277761392274585,103,0.0,2,simulated
1223,1,1.0,1,0.21077613923142693,104,1.0,2,simulated
1224,1,1.0,1,0.2627761392314443,105,0.0,2,simulated
1225,1,0.0,1,0.23377613922742715,106,0.0,2,simulated
1226,1,0.0,1,0.29077613922744616,107,1.0,2,simulated
1227,1,0.0,1,0.19177613922741313,108,0.0,2,simulated
1228,1,1.0,1,0.33577613923146865,109,1.0,2,simulated
1229,1,0.0,1,0.2807761392274428,110,0.0,2,simulated
1230,1,1.0,1,0.25277613923144093,111,1.0,2,simulated
1231,1,1.0,1,0.36277613923147767,112,1.0,2,simulated
1232,1,1.0,1,0.24277613923143762,113,0.0,2,simulated
1233,1,0.0,1,0.583776139227544,114,0.0,2,simulated
1234,1,0.0,1,0.2917761392274465,115,1.0,2,simulated
1235,1,0.0,1,0.3267761392274582,116,0.0,2,simulated
1236,1,1.0,1,0.6107761392315605,117,1.0,2,simulated
1237,1,1.0,1,0.41277613923149437,118,1.0,2,simulated
1238,1,1.0,1,0.27077613923144694,119,0.0,2,simulated
1239,1,0.0,1,0.5167761392275216,120,0.0,2,simulated
1240,1,0.0,1,0.8037761392276175,121,0.0,2,simulated
1241,1,1.0,1,0.2097761392314266,122,1.0,2,simulated
1242,1,1.0,1,0.2477761392314393,123,1.0,2,simulated
1243,1,1.0,1,0.27377613923144795,124,0.0,2,simulated
1244,1,1.0,1,0.4367761392315024,125,1.0,2,simulated
1245,1,0.0,1,0.26677613922743815,126,0.0,2,simulated
1246,1,0.0,1,0.38177613922747655,127,1.0,2,simulated
1247,1,1.0,1,0.6287761392315665,128,0.0,2,simulated
1248,1,0.0,1,0.2317761392274265,129,0.0,2,simulated
1249,1,0.0,1,0.7047761392275844,130,0.0,2,simulated
1250,1,0.0,1,0.5367761392275283,131,0.0,2,simulated
1251,1,0.0,1,0.6597761392275694,132,0.0,2,simulated
1252,1,0.0,1,0.6787761392275757,133,0.0,2,simulated
1253,1,0.0,1,0.5827761392275437,134,0.0,2,simulated
1254,1,1.0,1,0.348776139231473,135,1.0,2,simulated
1255,1,1.0,1,0.20477613923142493,136,1.0,2,simulated
1256,1,1.0,1,0.35977613923147667,137,1.0,2,simulated
1257,1,1.0,1,0.2547761392314416,138,1.0,2,simulated
1258,1,1.0,1,0.37677613923148234,139,1.0,2,simulated
1259,1,1.0,1,0.2247761392314316,140,0.0,2,simulated
1260,1,0.0,1,0.6667761392275717,141,1.0,2,simulated
1261,1,0.0,1,0.2917761392274465,142,1.0,2,simulated
1262,1,0.0,1,0.4657761392275046,143,0.0,2,simulated
1263,1,0.0,1,0.21877613922742215,144,0.0,2,simulated
1264,1,1.0,1,0.47177613923151407,145,1.0,2,simulated
1265,1,0.0,1,0.3827761392274769,146,0.0,2,simulated
1266,1,1.0,1,0.342776139231471,147,0.0,2,simulated
1267,1,1.0,1,0.372776139231481,148,1.0,2,simulated
1268,1,1.0,1,0.375776139231482,149,1.0,2,simulated
1269,1,1.0,1,0.7147761392315952,150,1.0,2,simulated
1270,1,1.0,1,0.4727761392315144,151,1.0,2,simulated
1271,1,0.0,1,0.5077761392275186,152,0.0,2,simulated
1272,1,1.0,1,0.22077613923143027,153,1.0,2,simulated
1273,1,1.0,1,0.8267761392316326,154,0.0,2,simulated
1274,1,0.0,1,0.3217761392274565,155,0.0,2,simulated
1275,1,0.0,1,0.5227761392275236,156,0.0,2,simulated
1276,1,0.0,1,1.778776139227943,157,1.0,2,simulated
1277,1,0.0,1,0.3307761392274595,158,0.0,2,simulated
1278,1,0.0,1,0.19177613922741313,159,0.0,2,simulated
1279,1,0.0,1,0.5337761392275273,160,0.0,2,simulated
1280,0,1.0,0,1.404280286632964,1,1.0,3,simulated
1281,0,0.0,0,0.4082802866286239,2,0.0,3,simulated
1282,0,1.0,0,0.5752802866326872,3,0.0,3,simulated
1283,0,0.0,0,0.36228028662860856,4,0.0,3,simulated
1284,0,1.0,0,0.5662802866326841,5,1.0,3,simulated
1285,0,0.0,0,0.537280286628667,6,1.0,3,simulated
1286,0,1.0,0,0.40428028663263005,7,1.0,3,simulated
1287,0,1.0,0,0.877280286632788,8,0.0,3,simulated
1288,0,0.0,0,1.429280286628965,9,0.0,3,simulated
1289,0,1.0,0,0.6342802866327069,10,1.0,3,simulated
1290,0,1.0,0,0.4022802866326294,11,1.0,3,simulated
1291,0,1.0,0,0.5402802866326755,12,0.0,3,simulated
1292,0,1.0,0,0.9942802866328271,13,1.0,3,simulated
1293,0,0.0,0,0.40628028662862326,14,0.0,3,simulated
1294,0,0.0,0,0.7242802866287295,15,0.0,3,simulated
1295,0,0.0,0,0.7792802866287478,16,1.0,3,simulated
1296,0,1.0,0,0.7392802866327419,17,0.0,3,simulated
1297,0,0.0,0,0.9882802866288176,18,0.0,3,simulated
1298,0,0.0,0,1.3842802866289499,19,1.0,3,simulated
1299,0,0.0,0,0.6502802866287047,20,1.0,3,simulated
1300,0,0.0,0,0.4522802866286386,21,1.0,3,simulated
1301,0,1.0,0,0.41928028663263506,22,1.0,3,simulated
1302,0,0.0,0,0.33228028662859854,23,0.0,3,simulated
1303,0,1.0,0,0.7502802866327456,24,1.0,3,simulated
1304,0,1.0,0,0.5492802866326785,25,0.0,3,simulated
1305,0,1.0,0,0.48628028663265743,26,1.0,3,simulated
1306,0,1.0,0,0.6392802866327085,27,1.0,3,simulated
1307,0,1.0,0,0.6552802866327139,28,1.0,3,simulated
1308,0,1.0,0,1.428280286632972,29,0.0,3,simulated
1309,0,1.0,0,0.6012802866326958,30,1.0,3,simulated
1310,0,1.0,0,0.6762802866327209,31,0.0,3,simulated
1311,0,0.0,0,1.2162802866288938,32,1.0,3,simulated
1312,0,0.0,0,0.9022802866287889,33,0.0,3,simulated
1313,0,0.0,0,1.0872802866288507,34,0.0,3,simulated
1314,0,0.0,0,0.39428028662861925,35,1.0,3,simulated
1315,0,0.0,0,0.4162802866286266,36,0.0,3,simulated
1316,0,0.0,0,1.0712802866288453,37,0.0,3,simulated
1317,0,1.0,0,0.9082802866327984,38,1.0,3,simulated
1318,0,1.0,0,0.9822802866328231,39,1.0,3,simulated
1319,0,1.0,0,0.4462802866326441,40,1.0,3,simulated
1320,0,0.0,0,0.3432802866286022,41,0.0,3,simulated
1321,0,0.0,0,0.3342802866285992,42,0.0,3,simulated
1322,0,1.0,0,0.6232802866327032,43,1.0,3,simulated
1323,0,1.0,0,0.7302802866327389,44,1.0,3,simulated
1324,0,1.0,0,0.7712802866327526,45,1.0,3,simulated
1325,0,0.0,0,0.9092802866287912,46,0.0,3,simulated
1326,0,0.0,0,0.5232802866286623,47,0.0,3,simulated
1327,0,1.0,0,0.5732802866326865,48,0.0,3,simulated
1328,0,0.0,0,0.3722802866286119,49,0.0,3,simulated
1329,0,1.0,0,0.45728028663264775,50,1.0,3,simulated
1330,0,0.0,0,0.37128028662861157,51,0.0,3,simulated
1331,0,0.0,0,0.4962802866286533,52,0.0,3,simulated
1332,0,0.0,0,0.38228028662861524,53,0.0,3,simulated
1333,0,0.0,0,1.1192802866288614,54,0.0,3,simulated
1334,0,0.0,0,0.6012802866286884,55,1.0,3,simulated
1335,0,0.0,0,0.6432802866287024,56,0.0,3,simulated
1336,0,1.0,0,0.6592802866327152,57,1.0,3,simulated
1337,0,0.0,0,0.6072802866286904,58,1.0,3,simulated
1338,0,1.0,0,0.4562802866326474,59,0.0,3,simulated
1339,0,0.0,0,1.3152802866289268,60,1.0,3,simulated
1340,0,0.0,0,0.9592802866288079,61,0.0,3,simulated
1341,0,0.0,0,0.9392802866288013,62,0.0,3,simulated
1342,0,0.0,0,1.8332802866290998,63,0.0,3,simulated
1343,0,0.0,0,0.7112802866287251,64,0.0,3,simulated
1344,0,1.0,0,0.8782802866327883,65,0.0,3,simulated
1345,0,1.0,0,0.7392802866327419,66,1.0,3,simulated
1346,0,1.0,0,2.0132802866331674,67,1.0,3,simulated
1347,0,1.0,0,0.6412802866327092,68,0.0,3,simulated
1348,0,1.0,0,1.1972802866328949,69,1.0,3,simulated
1349,0,1.0,0,0.898280286632795,70,1.0,3,simulated
1350,0,0.0,0,0.4812802866286483,71,1.0,3,simulated
1351,0,0.0,0,0.6822802866287154,72,0.0,3,simulated
1352,0,1.0,0,0.44228028663264274,73,1.0,3,simulated
1353,0,1.0,0,0.44228028663264274,74,1.0,3,simulated
1354,0,1.0,0,0.39528028663262704,75,1.0,3,simulated
1355,0,1.0,0,1.904280286633131,76,0.0,3,simulated
1356,0,0.0,0,0.9392802866288013,77,1.0,3,simulated
1357,0,0.0,0,0.3362802866285999,78,0.0,3,simulated
1358,0,1.0,0,2.033280286633174,79,0.0,3,simulated
1359,0,0.0,0,0.4812802866286483,80,1.0,3,simulated
1360,0,1.0,0,0.5662802866326841,81,1.0,3,simulated
1361,0,1.0,0,1.8252802866331046,82,1.0,3,simulated
1362,0,0.0,0,0.8932802866287859,83,0.0,3,simulated
1363,0,1.0,0,0.7852802866327573,84,1.0,3,simulated
1364,0,0.0,0,0.5652802866286764,85,0.0,3,simulated
1365,0,1.0,0,0.6372802866327079,86,1.0,3,simulated
1366,0,1.0,0,0.5422802866326761,87,1.0,3,simulated
1367,0,0.0,0,1.2212802866288954,88,1.0,3,simulated
1368,0,1.0,0,0.5412802866326758,89,0.0,3,simulated
1369,0,1.0,0,0.4432802866326431,90,1.0,3,simulated
1370,0,0.0,0,0.9342802866287996,91,0.0,3,simulated
1371,0,1.0,0,0.49328028663265977,92,0.0,3,simulated
1372,0,0.0,0,1.2302802866288984,93,0.0,3,simulated
1373,0,0.0,0,1.2582802866289078,94,0.0,3,simulated
1374,0,0.0,0,1.2912802866289188,95,0.0,3,simulated
1375,0,0.0,0,0.9882802866288176,96,1.0,3,simulated
1376,0,0.0,0,2.1202802866291957,97,1.0,3,simulated
1377,0,0.0,0,0.5842802866286827,98,0.0,3,simulated
1378,0,0.0,0,0.6942802866287194,99,0.0,3,simulated
1379,0,1.0,0,0.5942802866326935,100,1.0,3,simulated
1380,0,0.0,0,1.2332802866288994,101,0.0,3,simulated
1381,0,1.0,0,0.8212802866327693,102,1.0,3,simulated
1382,0,0.0,0,0.32628028662859654,103,1.0,3,simulated
1383,0,0.0,0,0.7262802866287301,104,1.0,3,simulated
1384,0,0.0,0,1.0572802866288407,105,1.0,3,simulated
1385,0,0.0,0,0.3812802866286149,106,0.0,3,simulated
1386,0,1.0,0,0.36928028663261836,107,1.0,3,simulated
1387,0,1.0,0,0.5192802866326685,108,1.0,3,simulated
1388,0,1.0,0,0.6022802866326962,109,1.0,3,simulated
1389,0,1.0,0,0.36328028663261636,110,1.0,3,simulated
1390,0,0.0,0,0.5152802866286597,111,0.0,3,simulated
1391,0,0.0,0,0.37028028662861123,112,0.0,3,simulated
1392,0,0.0,0,0.4642802866286426,113,0.0,3,simulated
1393,0,1.0,0,0.6002802866326955,114,1.0,3,simulated
1394,0,1.0,0,1.6302802866330395,115,0.0,3,simulated
1395,0,1.0,0,0.5952802866326938,116,1.0,3,simulated
1396,0,1.0,0,1.0632802866328501,117,1.0,3,simulated
1397,0,1.0,0,0.4092802866326317,118,0.0,3,simulated
1398,0,1.0,0,0.45128028663264574,119,0.0,3,simulated
1399,0,1.0,0,0.4622802866326494,120,0.0,3,simulated
1400,0,1.0,0,0.40128028663262905,121,0.0,3,simulated
1401,0,1.0,0,0.6992802866327286,122,1.0,3,simulated
1402,0,0.0,0,0.49128028662865164,123,1.0,3,simulated
1403,0,0.0,0,0.3082802866285905,124,0.0,3,simulated
1404,0,1.0,0,0.39228028663262604,125,1.0,3,simulated
1405,0,1.0,0,0.4022802866326294,126,1.0,3,simulated
1406,0,1.0,0,1.3792802866329557,127,0.0,3,simulated
1407,0,1.0,0,0.42228028663263606,128,1.0,3,simulated
1408,0,0.0,0,0.37628028662861324,129,0.0,3,simulated
1409,0,1.0,0,0.9712802866328194,130,1.0,3,simulated
1410,0,0.0,0,0.567280286628677,131,0.0,3,simulated
1411,0,1.0,0,0.7352802866327406,132,1.0,3,simulated
1412,0,1.0,0,1.6092802866330325,133,1.0,3,simulated
1413,0,0.0,0,1.0002802866288216,134,0.0,3,simulated
1414,0,0.0,0,1.0052802866288233,135,0.0,3,simulated
1415,0,1.0,0,0.5332802866326731,136,0.0,3,simulated
1416,0,1.0,0,0.811280286632766,137,0.0,3,simulated
1417,0,0.0,0,1.058280286628841,138,0.0,3,simulated
1418,0,0.0,0,0.6492802866287044,139,0.0,3,simulated
1419,0,1.0,0,0.5022802866326628,140,0.0,3,simulated
1420,0,0.0,0,0.49728028662865364,141,0.0,3,simulated
1421,0,0.0,0,0.5482802866286707,142,0.0,3,simulated
1422,0,0.0,0,0.32128028662859487,143,0.0,3,simulated
1423,0,0.0,0,0.41528028662862626,144,0.0,3,simulated
1424,0,0.0,0,0.567280286628677,145,1.0,3,simulated
1425,0,0.0,0,0.4512802866286383,146,0.0,3,simulated
1426,0,0.0,0,0.5622802866286754,147,0.0,3,simulated
1427,0,0.0,0,0.5472802866286703,148,0.0,3,simulated
1428,0,1.0,0,0.5032802866326631,149,0.0,3,simulated
1429,0,0.0,0,1.6742802866290467,150,1.0,3,simulated
1430,0,0.0,0,0.7612802866287418,151,0.0,3,simulated
1431,0,0.0,0,0.5512802866286717,152,1.0,3,simulated
1432,0,0.0,0,1.1402802866288684,153,1.0,3,simulated
1433,0,0.0,0,0.8282802866287642,154,0.0,3,simulated
1434,0,0.0,0,0.3962802866286199,155,0.0,3,simulated
1435,0,1.0,0,0.5212802866326691,156,1.0,3,simulated
1436,0,1.0,0,0.43428028663264007,157,0.0,3,simulated
1437,0,1.0,0,0.9552802866328141,158,1.0,3,simulated
1438,0,1.0,0,0.3582802866326147,159,1.0,3,simulated
1439,0,0.0,0,0.3962802866286199,160,0.0,3,simulated
1440,0,0.0,1,0.48228028662864864,1,0.0,3,simulated
1441,0,1.0,1,0.6432802866327099,2,1.0,3,simulated
1442,0,0.0,1,0.7572802866287405,3,0.0,3,simulated
1443,0,1.0,1,0.37828028663262137,4,0.0,3,simulated
1444,0,1.0,1,0.9942802866328271,5,1.0,3,simulated
1445,0,0.0,1,0.5542802866286727,6,0.0,3,simulated
1446,0,1.0,1,0.7472802866327446,7,1.0,3,simulated
1447,0,1.0,1,1.0892802866328588,8,0.0,3,simulated
1448,0,0.0,1,0.501280286628655,9,0.0,3,simulated
1449,0,1.0,1,0.6952802866327272,10,1.0,3,simulated
1450,0,1.0,1,0.8222802866327696,11,1.0,3,simulated
1451,0,1.0,1,0.5532802866326798,12,1.0,3,simulated
1452,0,1.0,1,0.5172802866326678,13,1.0,3,simulated
1453,0,1.0,1,0.3732802866326197,14,1.0,3,simulated
1454,0,1.0,1,0.7482802866327449,15,1.0,3,simulated
1455,0,0.0,1,0.5382802866286673,16,0.0,3,simulated
1456,0,1.0,1,0.8132802866327666,17,1.0,3,simulated
1457,0,1.0,1,1.0722802866328531,18,1.0,3,simulated
1458,0,0.0,1,0.6972802866287204,19,1.0,3,simulated
1459,0,0.0,1,0.6682802866287108,20,1.0,3,simulated
1460,0,0.0,1,1.498280286628988,21,0.0,3,simulated
1461,0,0.0,1,0.7852802866287498,22,1.0,3,simulated
1462,0,0.0,1,0.3052802866285895,23,0.0,3,simulated
1463,0,1.0,1,0.5692802866326852,24,1.0,3,simulated
1464,0,0.0,1,0.6542802866287061,25,1.0,3,simulated
1465,0,1.0,1,1.8462802866331116,26,1.0,3,simulated
1466,0,1.0,1,0.5582802866326815,27,1.0,3,simulated
1467,0,0.0,1,0.47328028662864563,28,0.0,3,simulated
1468,0,1.0,1,0.7412802866327426,29,1.0,3,simulated
1469,0,1.0,1,0.3852802866326237,30,0.0,3,simulated
1470,0,1.0,1,0.8002802866327623,31,0.0,3,simulated
1471,0,0.0,1,0.5022802866286553,32,1.0,3,simulated
1472,0,0.0,1,0.5472802866286703,33,0.0,3,simulated
1473,0,1.0,1,1.338280286632942,34,0.0,3,simulated
1474,0,1.0,1,0.5022802866326628,35,1.0,3,simulated
1475,0,1.0,1,1.0592802866328488,36,0.0,3,simulated
1476,0,1.0,1,0.6472802866327112,37,1.0,3,simulated
1477,0,1.0,1,1.2282802866329052,38,1.0,3,simulated
1478,0,0.0,1,0.44428028662863595,39,0.0,3,simulated
1479,0,0.0,1,0.5062802866286567,40,1.0,3,simulated
1480,0,0.0,1,0.3692802866286109,41,0.0,3,simulated
1481,0,1.0,1,0.41328028663263305,42,1.0,3,simulated
1482,0,0.0,1,0.49728028662865364,43,1.0,3,simulated
1483,0,1.0,1,0.5822802866326895,44,1.0,3,simulated
1484,0,1.0,1,0.5482802866326781,45,0.0,3,simulated
1485,0,0.0,1,0.3272802866285969,46,1.0,3,simulated
1486,0,0.0,1,0.6452802866287031,47,0.0,3,simulated
1487,0,0.0,1,0.7092802866287244,48,0.0,3,simulated
1488,0,1.0,1,0.4742802866326534,49,1.0,3,simulated
1489,0,1.0,1,0.43028028663263873,50,1.0,3,simulated
1490,0,1.0,1,0.3932802866326264,51,1.0,3,simulated
1491,0,1.0,1,0.4032802866326297,52,1.0,3,simulated
1492,0,1.0,1,0.3992802866326284,53,1.0,3,simulated
1493,0,0.0,1,0.7122802866287254,54,0.0,3,simulated
1494,0,1.0,1,0.4412802866326424,55,1.0,3,simulated
